sec,nsec,orientationQuatX,orientationQuatY,orientationQuatZ,orientationQuatW,angularVelX,angularVelY,angularVelZ,linearAccelerationX,linearAccelerationY,linearAccelerationZ
1717248823,512342000,0.0012187437688282196,0.005090718870876291,-0.7081365871846008,0.7060560693992721,0.00012352522753644735,-5.8115860156249255e-05,0.0003104672359768301,0.1687328815460205,0.1004895567893982,-19.565454483032227
1717248823,548343000,0.0012144708654091723,0.005087829882480032,-0.7081391751431855,0.7060535019919758,-3.593908331822604e-05,-0.0002563740417826921,-0.0003704076516442001,0.1740598827600479,0.1071070060133934,-19.55302619934082
1717248823,584344000,0.0012173991064922914,0.005093541187853734,-0.7081362722842259,0.7060563671924388,-0.0001067583289113827,0.00047657638788223267,0.0001939402864081785,0.17508627474308014,0.09774542599916458,-19.560434341430664
1717248823,620344000,0.0012178016420084817,0.0050884820591587405,-0.708138833735926,0.7060538339706235,0.00020290941756684333,-0.00012781609257217497,-0.000267594528850168,0.16870330274105072,0.10395025461912155,-19.561800003051758
1717248823,656345000,0.0012162209610532028,0.005080178793091577,-0.70814154474261,0.7060511774648875,0.00029971194453537464,-0.00042679894249886274,-0.00023242125462274998,0.17297139763832092,0.10421174764633179,-19.554731369018555
1717248823,692346000,0.0012126662236949062,0.005081642465058959,-0.7081441013521467,0.7060486088582342,-0.00013957680494058877,3.5200031561544165e-05,-0.00019899160542991012,0.16762930154800415,0.0976184830069542,-19.56635856628418
1717248823,728346000,0.0012142549187026278,0.005077738968447145,-0.7081391214576715,0.7060536288506121,0.00019536995387170464,-1.818835698941257e-05,0.0002404471015324816,0.1740330457687378,0.10383720695972443,-19.555767059326172
1717248823,764346000,0.0012159930805118431,0.005074355211791211,-0.708140660741065,0.7060521063527966,0.0002013022603932768,-9.7775919130072e-05,-0.00024546627537347376,0.1772187054157257,0.0991392582654953,-19.557950973510742
1717248823,800347000,0.0012171373871574993,0.005077695337445034,-0.7081442138251304,0.706048516755491,-0.00016402879555244,0.0002580548753030598,-0.0002062810235656798,0.16763435304164886,0.10264702141284943,-19.564409255981445
1717248823,836348000,0.0012125036678101732,0.00508279960169319,-0.7081448505327064,0.7060478494033358,-0.0003117626765742898,0.00010440032201586291,-0.00019221508409827948,0.171901136636734,0.10060467571020126,-19.557695388793945
1717248823,872348000,0.001306944805964965,0.005078959023951415,-0.7081496743394009,0.7060428703722653,0.0003333924396429211,0.00011997643014183268,-0.0004692785441875458,0.17083878815174103,0.09787935018539429,-19.556562423706055
1717248823,908349000,0.0013033035819765447,0.005081397184974738,-0.7081483522942305,0.7060441855474688,-0.0002614085387904197,-4.320730658946559e-05,0.00017252148245461285,0.16763921082019806,0.09809773415327072,-19.56113624572754
1717248823,944349000,0.001310750095936855,0.005087938647991947,-0.7081470847290738,0.7060453959939219,4.006238668807782e-05,0.0007189621683210135,5.817727651447058e-05,0.17721958458423615,0.10038308054208755,-19.55766487121582
1717248823,980350000,0.0013085918320459927,0.005097642863819244,-0.7081466360899019,0.7060457799740795,-0.00044131712638773024,0.00021648700931109488,-0.00011764077498810366,0.16125324368476868,0.10255973041057587,-19.563844680786133
1717248824,16350000,0.0012977274467807953,0.005097133478298528,-0.7081454615840664,0.7060469817028241,-0.0004045905952807516,-0.00031816656701266766,0.00010731517249951139,0.1740238219499588,0.09729582071304321,-19.559701919555664
1717248824,52351000,0.0012946897697635117,0.005095281307172143,-0.7081430341536814,0.7060494352851072,-5.312300709192641e-05,-0.00012750404130201787,4.110392910661176e-05,0.1687156707048416,0.1063745990395546,-19.555564880371094
1717248824,88350000,0.0012936570218610875,0.005103774302263256,-0.7081501690960298,0.706042219664409,-0.0002975502866320312,0.00025445790379308164,-0.0005891597247682512,0.18147900700569153,0.10013487935066223,-19.55515480041504
1717248824,124351000,0.001286960503047428,0.005110029057305276,-0.7081486510942877,0.7060437091916036,-0.0006137327291071415,3.877848575939424e-05,5.636465721181594e-05,0.1665773242712021,0.09721334278583527,-19.560035705566406
1717248824,160352000,0.0012872558254726052,0.005112858063489689,-0.708147494392015,0.7060448483213891,-4.162401455687359e-05,0.00022876109869685024,0.0001233756192959845,0.16872306168079376,0.10867973417043686,-19.551963806152344
1717248824,196353000,0.0012901657666695376,0.005113751099428066,-0.7081426904138275,0.7060496547945148,7.327370258281007e-05,0.0001347963698208332,0.0002464198914822191,0.16870319843292236,0.09421071410179138,-19.56039047241211
1717248824,232353000,0.0012780794415666811,0.0051134487412425236,-0.7081352018982746,0.7060571896010985,-0.0004411556583363563,-0.0004179925308562815,0.0005694259307347238,0.1740272045135498,0.1058383360505104,-19.55918312072754
1717248824,268354000,0.0012747414592779397,0.005112469210672152,-0.7081338202636253,0.7060585884270694,-0.00017716235015541315,-0.00014464140986092389,-1.6826064893393777e-05,0.1761595755815506,0.09741382300853729,-19.555253982543945
1717248824,304355000,0.0012718841120331686,0.00510632289715078,-0.7081370210110444,0.706055427888547,0.0001418713218299672,-0.00020826986292377114,-0.00023565461742691696,0.16867606341838837,0.10632284730672836,-19.5589542388916
1717248824,340354000,0.0012696704072153906,0.00510476415413904,-0.7081370322996909,0.7060554318222998,-2.837429974533734e-06,-0.0002268963580718264,-0.0001434540463378653,0.1718619465827942,0.10125265270471573,-19.55875587463379
1717248824,376355000,0.001267424604852467,0.005104647354907304,-0.7081339610606628,0.706058516981977,-0.00010104113607667387,-4.2157465941272676e-05,0.00029105384601280093,0.17507025599479675,0.09841561317443848,-19.551345825195312
1717248824,412355000,0.0012667012628592292,0.0051109973811675835,-0.7081315584845397,0.7060608819726081,-0.00021854259830433875,0.00028847288922406733,6.936209683772177e-05,0.16550838947296143,0.09839791804552078,-19.563013076782227
1717248824,448356000,0.0012687682253334422,0.005115316907083136,-0.7081315272099837,0.7060608783464684,-0.00010387445945525542,0.0002664696366991848,-4.1453663470747415e-06,0.180400088429451,0.10126781463623047,-19.56345558166504
1717248824,484357000,0.0012674124622102658,0.005118759558597075,-0.7081305764574918,0.7060618093709731,-0.00013544497778639197,0.0001885685633169487,-3.8318627048283815e-05,0.1655290722846985,0.10271415114402771,-19.552621841430664
1717248824,520357000,0.0012670830999872594,0.005121097511866788,-0.7081292549211256,0.7060631184147372,-0.00017780666530597955,0.00016997981583699584,9.736626088852063e-05,0.16975955665111542,0.09943106025457382,-19.565093994140625
1717248824,556358000,0.0012674329574232904,0.005119951472612809,-0.7081291790505448,0.7060632021907229,0.0001374047133140266,1.7588550690561533e-05,-6.343606219161302e-05,0.16764503717422485,0.10716073960065842,-19.559396743774414
1717248824,592358000,0.0012594056930945033,0.005114847543243,-0.7081212200831205,0.7060712357120225,-0.00014827103586867452,-0.0005679695750586689,0.0005580306169576943,0.17828603088855743,0.10298891365528107,-19.556589126586914
1717248824,628360000,0.0012582717897303092,0.005114034707183635,-0.7081258131844737,0.7060666371546985,-7.015310256974772e-05,-2.6607935069478117e-05,-0.0005351321888156235,0.16657978296279907,0.09668726474046707,-19.55864906311035
1717248824,664359000,0.0012578389620912201,0.005121350513254609,-0.7081301790605659,0.706062206263525,-0.000283391767879948,0.0003744508430827409,-0.0003153266152366996,0.17722515761852264,0.10639289766550064,-19.555601119995117
1717248824,700360000,0.0012588258730072525,0.005124692345090397,-0.7081302810785325,0.7060620779403382,-8.683499618200585e-05,0.00017466228746343404,7.100899892975576e-06,0.1729540228843689,0.09418398886919022,-19.562501907348633
1717248824,736361000,0.0012543595929184114,0.005122392467888342,-0.7081278569300579,0.7060645338190131,-0.0001163244160125032,-0.00013513477460946888,0.0001077752749552019,0.16658039391040802,0.10774563252925873,-19.55776023864746
1717248824,772361000,0.001247706869903411,0.005122781823892949,-0.7081278962806614,0.7060645033161463,-0.0002676483418326825,-0.00023712805705145001,-3.319089228170924e-05,0.18038305640220642,0.09814496338367462,-19.552106857299805
1717248824,808362000,0.001246325246966149,0.005123085670478842,-0.7081240223406802,0.706068388791516,5.378567584557459e-05,6.247294368222356e-05,0.0002164614706998691,0.15802712738513947,0.10410679131746292,-19.56281852722168
1717248824,844362000,0.0012436543117671053,0.0051238689906959465,-0.7081270046857211,0.7060653967766354,-0.0002453847846481949,-0.00015079363947734237,-0.00035602168645709753,0.17720504105091095,0.10061003267765045,-19.552162170410156
1717248824,880363000,0.0012488329968162264,0.005119301380340793,-0.7081290156696426,0.706063403906665,0.00031725989538244903,0.00019271527708042413,-0.00011990906205028296,0.17402441799640656,0.0971476212143898,-19.559370040893555
1717248824,916364000,0.0012455580309286367,0.005117731511306754,-0.7081319308797903,0.7060604973214616,4.708513370133005e-05,-0.0002839592343661934,-0.00033860659459605813,0.1687033325433731,0.09688566625118256,-19.560726165771484
1717248824,952363000,0.0012505371782951704,0.005110155702817878,-0.7081307651888789,0.7060617125000275,0.00043396480032242835,4.6949198804213665e-06,9.739270899444818e-05,0.1772136092185974,0.09975071996450424,-19.560768127441406
1717248824,988365000,0.0013265956597223053,0.005016557601724311,-0.7081242382735026,0.7060687908860978,7.162567635532469e-05,-0.0003742345725186169,0.0004541765374597162,0.17190156877040863,0.10699332505464554,-19.558420181274414
1717248825,24365000,0.0013232864893604564,0.005014487821203735,-0.7081213912572722,0.7060716670909711,-5.3526517149293795e-05,-0.0002595308469608426,0.0002246544318040833,0.17189088463783264,0.09899821132421494,-19.5562744140625
1717248825,60366000,0.0013213460238943712,0.005022334544245281,-0.7081194838463881,0.7060735278974389,-0.00038354285061359406,0.0003037719870917499,6.581898924196139e-05,0.1750553995370865,0.10472510010004044,-19.558008193969727
1717248825,96366000,0.0013170351207543193,0.005029991736499824,-0.7081246900217049,0.7060682601443615,-0.0004888295661658049,0.0002991558867506683,-0.0004720468132290989,0.1676204949617386,0.1064588651061058,-19.55242156982422
1717248825,132366000,0.0013244484058679564,0.005026328256593743,-0.708123790128234,0.7060691748795596,0.00044174978393130004,0.0001772714895196259,-6.929889786988497e-05,0.1718803197145462,0.09768793731927872,-19.559497833251953
1717248825,168367000,0.0013183217045853104,0.005023041339145327,-0.7081234348148202,0.706069566083718,-9.877723641693592e-05,-0.00035068695433437824,-3.3618456654949114e-05,0.17083461582660675,0.10173653066158295,-19.55938148498535
1717248825,204368000,0.0013135053142809478,0.0050268754092367115,-0.7081224396771184,0.7060705458048334,-0.0003101676993537694,4.5979093556525186e-05,9.93230496533215e-05,0.16551576554775238,0.09885898977518082,-19.559141159057617
1717248825,240368000,0.0013177061397691141,0.0050222779965810324,-0.7081248711177834,0.7060681321789538,0.00021746019774582237,-6.6796555984183215e-06,-0.00022682567941956222,0.1719067245721817,0.09937962144613266,-19.55453109741211
1717248825,276368000,0.001321489536002288,0.005025487441498326,-0.7081202189587644,0.70607276795184,0.00014460082456935197,0.00035711744567379355,0.00031494288123212755,0.17190848290920258,0.10496971011161804,-19.554426193237305
1717248825,312370000,0.0013180217069518598,0.005022647262842848,-0.7081170828353048,0.7060759398464665,-3.7275196518749e-05,-0.00021903100423514843,0.00017438452050555497,0.16444142162799835,0.09125139564275742,-19.563690185546875
1717248825,348370000,0.0013171885994809986,0.005026166331433017,-0.708114574820445,0.7060784316158246,-0.00017767354438547045,0.00017430228763259947,0.00016777426935732365,0.17615611851215363,0.10717852413654327,-19.55857276916504
1717248825,384371000,0.0013198908813873513,0.005022708579686284,-0.7081136314090386,0.7060793973054936,0.00031179405050352216,-8.66667614900507e-05,3.716948049259372e-05,0.17083686590194702,0.09973561763763428,-19.55787467956543
1717248825,420371000,0.001311887581959644,0.005016341107814189,-0.7081106886860398,0.706082408675818,-0.00010568526340648532,-0.0003966731601394713,0.00020308044622652233,0.16870255768299103,0.09682992100715637,-19.561134338378906
1717248825,456372000,0.0013124613300527304,0.005012197926858992,-0.7081110968377555,0.7060820277081338,0.00012114270066376776,-9.459229477215558e-05,-0.00019762880401685834,0.1708395630121231,0.10439746081829071,-19.557138442993164
1717248825,492372000,0.001303188302937169,0.00501381709612673,-0.708107802818946,0.7060853368575915,-0.0003988372627645731,-0.0003496762365102768,0.00021361031394917518,0.16764290630817413,0.10046514868736267,-19.55951499938965
1717248825,528373000,0.001303834086441907,0.005014625540532815,-0.7081067870247778,0.7060863486265752,-2.4944913093349896e-05,0.00014522213314194232,0.0001305631740251556,0.16977381706237793,0.10190536826848984,-19.55785369873047
1717248825,564374000,0.0013070815045318456,0.005031018408349814,-0.7081032615609513,0.7060897615448466,-0.00046080409083515406,0.0008855462074279785,0.00012055195838911459,0.17295832931995392,0.09933124482631683,-19.560977935791016
1717248825,600375000,0.001304892889510857,0.005028027649808119,-0.7081041245832986,0.7060889214118996,1.3207068150222767e-05,-0.0002409474109299481,-0.00010637669765856117,0.16444933414459229,0.10042715072631836,-19.560842514038086
1717248825,636374000,0.0013118975945142421,0.00504391620665264,-0.7081011073769489,0.7060918209167563,-0.00034951671841554344,0.0010455625597387552,0.00023684617190156132,0.17402181029319763,0.09982473403215408,-19.561161041259766
1717248825,672374000,0.0013099687724645915,0.005046892191104143,-0.7080978034589664,0.7060951165371512,-0.00025775411631911993,-4.868304677074775e-05,0.0001654359803069383,0.1697801649570465,0.10581958293914795,-19.555051803588867
1717248825,708375000,0.0013006931860963288,0.005041773743561351,-0.7080962829221641,0.7060966950967615,-8.538163820048794e-05,-0.0005188810755498707,-6.051022864994593e-05,0.16764165461063385,0.09950289875268936,-19.560041427612305
1717248825,744376000,0.001296713023011483,0.0050377443490486505,-0.7080993418952561,0.7060936635282281,2.880409920180682e-05,-0.0002633997064549476,-0.0001805250794859603,0.16977128386497498,0.10148017853498459,-19.559139251708984
1717248825,780377000,0.0012856610397504714,0.005035179919718914,-0.7081030638604816,0.7060899694729175,-0.0003597332106437534,-0.0003963514172937721,-0.00032434804597869515,0.17403309047222137,0.10352995991706848,-19.555700302124023
1717248825,816376000,0.0013071455054421612,0.00498372170443176,-0.7080998930740888,0.7060934749146633,-0.00017686317733023316,0.0005803193780593574,0.00028654816560447216,0.16658659279346466,0.09758314490318298,-19.555145263671875
1717248825,852377000,0.0012988175734651485,0.004974867881049075,-0.7080957048614289,0.7060977528071257,-3.384562660357915e-05,-0.0005545046296902001,0.00022326246835291386,0.17189688980579376,0.10461536794900894,-19.560569763183594
1717248825,888378000,0.0013011070484664482,0.004974551870722302,-0.7080961279181269,0.7060973265644684,0.0001705463364487514,7.471281423931941e-05,-7.202553388196975e-05,0.16871166229248047,0.10055934637784958,-19.556827545166016
1717248825,924379000,0.00129877337242538,0.0049784662774415905,-0.7080928176612854,0.7061006228844108,-0.00024022454454097897,4.419534161570482e-05,0.0001577896618982777,0.16764415800571442,0.09480294585227966,-19.558002471923828
1717248825,960380000,0.0012923207321644849,0.004970824521319294,-0.70808643228549,0.7061070918946428,5.507286186912097e-05,-0.00041724639595486224,0.00047025043750181794,0.1772189736366272,0.10509971529245377,-19.558712005615234
1717248825,996380000,0.0012931795491421243,0.004972509256406693,-0.7080872621587655,0.7061062462596208,-0.00016685182345099747,0.00011851520685013384,-0.0001758571743266657,0.16765423119068146,0.10171590000391006,-19.55366325378418
1717248826,32380000,0.0012930122097729302,0.0049787742223300815,-0.7080876810128045,0.706105782389988,-0.00021155997819732875,0.00035322963958606124,-6.716213101753965e-05,0.17295846343040466,0.10086826235055923,-19.561134338378906
1717248826,68380000,0.0012887283936264952,0.004979450685626,-0.7080861190935774,0.7061073517511293,-0.0001303499739151448,-0.00012710170994978398,7.521746010752395e-05,0.17406827211380005,0.10841327160596848,-19.557619094848633
1717248826,104380000,0.001281409903802985,0.0049702150500127214,-0.7080858474930213,0.7061077025009036,9.186932584270835e-05,-0.0006744578713551164,-4.197608177491929e-06,0.1698029637336731,0.09717278182506561,-19.561552047729492
1717248826,140381000,0.0012793507220871733,0.004972051372458484,-0.7080852453889426,0.706108297097096,-0.00024456658866256475,9.312921611126512e-05,-8.233319385908544e-05,0.1740434318780899,0.10363838821649551,-19.554628372192383
1717248826,176382000,0.001281735313586826,0.004972320262068031,-0.7080810768622097,0.7061124710522048,0.0001780557940946892,0.0001904638484120369,0.00031771635985933244,0.17401669919490814,0.10133741050958633,-19.564117431640625
1717248826,212382000,0.0012852870070778804,0.004970820104829622,-0.7080800772797262,0.7061134775263335,9.178154869005084e-05,0.00010412906704004854,2.1386751541285776e-05,0.16658125817775726,0.1005697250366211,-19.558441162109375
1717248826,248383000,0.001284687492343262,0.004969968320736918,-0.7080818088461412,0.7061117482198652,6.39644349575974e-05,-6.316301005426794e-05,-0.00027033017249777913,0.16980509459972382,0.10048773139715195,-19.560909271240234
1717248826,284383000,0.0012871194798450098,0.0049692544723693504,-0.7080826555744445,0.7061108997233196,0.00018149413517676294,0.00017077371012419462,-5.529000918613747e-05,0.16873972117900848,0.10476619005203247,-19.562450408935547
1717248826,320384000,0.0012826099821703415,0.004970201862789299,-0.7080821860127409,0.7061113721336704,-0.00022287348110694438,-0.00012111079558962956,3.0505590984830633e-05,0.16764624416828156,0.10261359065771103,-19.562490463256836
1717248826,356385000,0.0012913914435401055,0.004980194318576671,-0.7080816105257373,0.7061118628149275,-0.00017029106675181538,0.0008392065647058189,-9.829633927438408e-05,0.17084024846553802,0.10543734580278397,-19.556922912597656
1717248826,392385000,0.0012873104395589971,0.0049743584638608646,-0.7080855236648514,0.7061079873262861,0.00010091856529470533,-0.00037628799327649176,-0.0003363043942954391,0.1708374321460724,0.10417667776346207,-19.558242797851562
1717248826,428386000,0.0012982410806202424,0.00498014638551515,-0.7080877975406464,0.7061056462641493,0.0002344106324017048,0.000586618494708091,-0.00023978555691428483,0.17406414449214935,0.10067066550254822,-19.55865478515625
1717248826,464387000,0.0012985957876990117,0.004983647846770486,-0.7080863839968603,0.7061070384165352,-0.00018174093565903604,0.00022838225413579494,0.00013665991718880832,0.17087037861347198,0.10321558266878128,-19.560462951660156
1717248826,500386000,0.001299798671055457,0.004982197518154727,-0.7080802074315822,0.7061132402631692,0.0002077287354040891,0.00011209792137378827,0.0003733868943527341,0.16874180734157562,0.09961480647325516,-19.556116104125977
1717248826,536387000,0.0012980098058449768,0.004978750466978475,-0.7080800633940174,0.7061134123058814,9.996537846745923e-05,-0.0001782513572834432,-5.3541003580903634e-05,0.16658218204975128,0.09955012798309326,-19.55779266357422
1717248826,572387000,0.0012953897679097172,0.004972012915616792,-0.7080836461595471,0.7061098718289651,8.514800720149651e-05,-0.0002969452179968357,-0.0003001546720042825,0.17509104311466217,0.10282311588525772,-19.558656692504883
1717248826,608388000,0.0012937037639055983,0.004973686951391914,-0.7080866225658567,0.7061068783916207,-0.00017320590268354863,0.00011611275840550661,-0.00040818360866978765,0.1718951016664505,0.10023804008960724,-19.560855865478516
1717248826,644389000,0.0012892407160789506,0.004983332707918647,-0.7080876910230177,0.7061057470911775,-0.00042933670920319855,0.00015373081259895116,-9.443490125704557e-05,0.17189761996269226,0.10095390677452087,-19.55962371826172
1717248826,680389000,0.001288430560045989,0.004987798983391165,-0.708087491184228,0.7061059174347849,-0.00032647745683789253,0.00023937849618960172,-4.314693796914071e-05,0.17403270304203033,0.09843308478593826,-19.555137634277344
1717248826,716390000,0.0012949539854216375,0.004989461052998946,-0.7080913934196384,0.7061019805506927,0.00022055783483665437,0.00031972292345017195,-0.0002651430550031364,0.17190061509609222,0.09619278460741043,-19.55730628967285
1717248826,752390000,0.001294658205830799,0.00499598389273798,-0.7080915156947731,0.7061018123515562,-0.00022917985916137695,0.00036861776607111096,-0.00012400896230246872,0.17509743571281433,0.10533781349658966,-19.55561637878418
1717248826,788391000,0.0012910385810239045,0.004997062940660872,-0.7080970214105705,0.7060962900701485,-0.0002316052559763193,-3.769445538637228e-05,-0.0005362029187381268,0.16871729493141174,0.10298506915569305,-19.55419158935547
1717248826,824391000,0.0012896536920752875,0.00499742578921784,-0.7081005540845703,0.7060927473313688,5.858718941453844e-05,-0.00010420434409752488,-0.00029133347561582923,0.1718922257423401,0.09670958667993546,-19.561866760253906
1717248826,860392000,0.0012828254293486233,0.004987983993137452,-0.7080992741142681,0.7060941101393273,6.267151093197754e-06,-0.00040970154805108905,6.85826234985143e-05,0.17509691417217255,0.0979563370347023,-19.554792404174805
1717248826,896392000,0.0012858970625619936,0.0049616113167243,-0.7080979866809322,0.7060955814479345,-0.00034372895606793463,-4.6895704144844785e-05,7.882877980591729e-05,0.1718989908695221,0.09824910014867783,-19.55848503112793
1717248826,932393000,0.0012853544826641875,0.00495354317653572,-0.7081000213174632,0.7060935986709271,0.0002836331841535866,-0.0003338085953146219,-0.00029966048896312714,0.16763794422149658,0.10326149314641953,-19.56258773803711
1717248826,968394000,0.0012814319726202749,0.004947240089893973,-0.7080979612119875,0.7060957159443889,3.4362328733550385e-05,-0.00025190244195982814,0.00013106818369124085,0.17085707187652588,0.10243916511535645,-19.556365966796875
1717248827,4394000,0.0012796533715781352,0.004946364068746196,-0.7081001137507231,0.7060935666581032,-1.3406269317783881e-05,-8.431563765043393e-05,-0.00018333476327825338,0.16980642080307007,0.10338553041219711,-19.56063461303711
1717248827,40394000,0.0012797398000501726,0.0049486879925266895,-0.7080991295061536,0.7060945372581667,-7.506902329623699e-05,0.00012839854753110558,3.97064613935072e-05,0.17086189985275269,0.09932773560285568,-19.559980392456055
1717248827,76394000,0.0012815854246195297,0.004954845310798898,-0.7080968557866936,0.7060967708974061,-9.116259025176987e-05,0.0002866247377824038,0.00014429226575884968,0.17189857363700867,0.10275857895612717,-19.55938148498535
1717248827,112395000,0.0012740993908779382,0.004951647828631623,-0.7080975937512484,0.7060960668196753,-0.0002805317344609648,-0.0002596198464743793,-0.00014646419731434435,0.16870930790901184,0.10164214670658112,-19.558252334594727
1717248827,148396000,0.0012679016139670331,0.004956919292018864,-0.7080994086657494,0.7060942209251156,-0.0004393034032545984,-0.00010543449752731249,-0.00019475682347547263,0.17508754134178162,0.09810130298137665,-19.559812545776367
1717248827,184396000,0.0012631877843352626,0.00496175907835933,-0.7080999639711123,0.7060936384981665,-0.0003399195265956223,0.00011614911636570469,-0.000186767298146151,0.16445644199848175,0.10178884863853455,-19.557252883911133
1717248827,220398000,0.0012604998859567064,0.004956295027871721,-0.7081020224618272,0.7060916173309978,8.633940888103098e-05,-0.0003521378675941378,-0.00022452534176409245,0.16871416568756104,0.10323549807071686,-19.55590057373047
1717248827,256398000,0.0012675214170783716,0.004953752738813081,-0.7081067537906177,0.7060868777702736,0.0004909696872346103,0.0002262997004436329,-0.0003395870153326541,0.17083866894245148,0.10503508150577545,-19.557703018188477
1717248827,292398000,0.0012684411090290737,0.00494644468758716,-0.7081071837285956,0.7060864961844705,0.00023387835244648159,-0.0002163071621907875,-8.724627696210518e-05,0.1697676181793213,0.09858540445566177,-19.56066131591797
1717248827,328398000,0.0012633578211887764,0.004945133091026647,-0.7081111069120234,0.7060825800524728,-0.00025242415722459555,-0.00016437223530374467,-0.0003206784895155579,0.1740247905254364,0.09941200166940689,-19.55950355529785
1717248827,364398000,0.0012574180404402724,0.004945808618104761,-0.7081129540108314,0.7060807335135542,-0.00018592273409012705,-0.00019595374760683626,-0.00019946473184973001,0.17509157955646515,0.09887043386697769,-19.55777931213379
1717248827,400399000,0.0012419974369104185,0.004942683328664411,-0.708116847893309,0.7060768775802841,-0.000427952065365389,-0.0005398544017225504,-0.0004514456959441304,0.1676468849182129,0.09510398656129837,-19.556589126586914
1717248827,436399000,0.0012398806736342682,0.0049442061662618025,-0.7081189835989092,0.7060747287562049,-0.0001909358543343842,-6.814637163188308e-05,-0.00017786242824513465,0.16764850914478302,0.10194388777017593,-19.556743621826172
1717248827,472400000,0.001234091988825785,0.004937945912886608,-0.7081164602554659,0.7060773133463457,3.863203528453596e-05,-0.000498042325489223,0.0001727012131595984,0.17083163559436798,0.10282213240861893,-19.561124801635742
1717248827,508401000,0.0012309245019697715,0.00493607618194835,-0.70811723088426,0.7060765590937035,-1.7622151062823832e-05,-2.1401254343800247e-05,-0.00016867939848452806,0.168721541762352,0.10107570886611938,-19.560508728027344
1717248827,544401000,0.0012359481320631468,0.00494611903438882,-0.7081180023145643,0.7060757063776825,-0.00028779913554899395,0.0007044801604934037,-8.022386737138731e-07,0.1740686446428299,0.1021801233291626,-19.556482315063477
1717248827,580402000,0.0012348936300735607,0.004949597110413333,-0.7081100238941154,0.7060836852575212,-9.579361358191818e-05,0.000110527420474682,0.0005419210065156221,0.16874267160892487,0.09915357828140259,-19.56002426147461
1717248827,616403000,0.001235443238908427,0.004957039800256051,-0.7081079095454994,0.7060857524943587,-0.00032421902869828045,0.0002941102720797062,8.007072756299749e-05,0.17407473921775818,0.10358525067567825,-19.553434371948242
1717248827,652403000,0.0012280644811556145,0.004959990596581685,-0.708112939178171,0.7060807005713751,-0.00037120029446668923,-0.0001000654447125271,-0.000487739744130522,0.16555331647396088,0.10018002241849899,-19.559263229370117
1717248827,688404000,0.0012205815566322022,0.004967183333184699,-0.7081128045935445,0.7060807979552077,-0.0005701251211576164,0.00010911226854659617,9.349700121674687e-06,0.16979868710041046,0.10694832354784012,-19.55642318725586
1717248827,724405000,0.0012263971897688143,0.004970362914809269,-0.7081137922124762,0.7060797750402529,0.0001243120350409299,0.0003163118672091514,-0.00021038240811321884,0.16764330863952637,0.09979736059904099,-19.5592041015625
1717248827,760405000,0.0012268835015984045,0.004970849929941887,-0.7081094540004564,0.706084121449437,-4.002264904556796e-05,1.829203756642528e-05,0.0003148297837469727,0.1655174195766449,0.1040874794125557,-19.559043884277344
1717248827,796405000,0.0012294732217349518,0.004973408801355385,-0.708106995011472,0.7060865649595061,-4.720095239463262e-05,0.0003211453149560839,0.00016525083628948778,0.17721271514892578,0.0955248773097992,-19.56060791015625
1717248827,832406000,0.0012218955502943443,0.004979920122181521,-0.7081096848169443,0.7060838347075286,-0.0004947143606841564,1.809191599022597e-05,-0.0003488124057184905,0.17083270847797394,0.10220158100128174,-19.56045913696289
1717248827,868406000,0.001229276793274847,0.004983754802354858,-0.7081152550274569,0.7060782086030095,0.0001991184544749558,0.0005412735044956207,-0.0004963772371411324,0.1687144637107849,0.10316139459609985,-19.555734634399414
1717248827,904407000,0.0012254766110509176,0.004991567393153283,-0.7081161258180582,0.7060772867175796,-0.0005713934078812599,0.00018616369925439358,-4.74337866762653e-05,0.16764231026172638,0.10191740095615387,-19.560054779052734
1717248827,940408000,0.0012202546225942828,0.00499049846272871,-0.7081130612224692,0.7060803767489174,-0.0001269482891075313,-0.00021230916900094599,0.00013475384912453592,0.16763080656528473,0.10286740213632584,-19.566343307495117
1717248827,976409000,0.0012214400080239583,0.0049910527190226185,-0.7081117105675734,0.7060817253223084,3.538288365234621e-05,0.00011507610906846821,0.0001151903998106718,0.17190667986869812,0.10338740795850754,-19.555150985717773
1717248828,12409000,0.0012326567794574122,0.004984467382352644,-0.7081101155678473,0.7060833519299744,-0.0004901524516753852,-9.836116805672646e-05,1.8837181414710358e-05,0.16551055014133453,0.09801654517650604,-19.56180191040039
1717248828,48409000,0.0012309302454253687,0.004988116644834799,-0.7081100898465955,0.7060833549663347,-0.00015780680405441672,0.00016052932187449187,-9.260541992262006e-05,0.17083610594272614,0.09872467070817947,-19.558130264282227
1717248828,84410000,0.0012250977791111756,0.004980254451967152,-0.7081053055292946,0.7060882186258948,6.721702811773866e-05,-0.0004782182222697884,0.0003278572403360158,0.1697695255279541,0.09969031810760498,-19.5598087310791
1717248828,120410000,0.0012214213774914006,0.004966007199352529,-0.7081064579550203,0.7060871696219312,0.0004186526348348707,-0.0006986592779867351,-0.0001358550216536969,0.1729617714881897,0.09975019097328186,-19.5592041015625
1717248828,156411000,0.0012208380386618438,0.004965819183522592,-0.7081053229720263,0.7060883101801093,1.4041346730664372e-05,6.209441926330328e-05,4.064869790454395e-05,0.17086584866046906,0.09892244637012482,-19.555585861206055
1717248828,192410000,0.0012172601438876513,0.00496671498070745,-0.7081042645814118,0.7060893714691223,-0.00016023573698475957,-9.969480743166059e-05,-2.320303065062035e-05,0.1719394028186798,0.10117974877357483,-19.557321548461914
1717248828,228411000,0.0012211003025914425,0.004965377829833144,-0.7081091137662512,0.7060845111870337,0.0002561549190431833,0.00020173740631435066,-0.0004530273436103016,0.1708730012178421,0.09621084481477737,-19.558013916015625
1717248828,264412000,0.0012245462563829684,0.004962875205534742,-0.7081143919549203,0.7060792294512521,0.00019507977413013577,0.0001024228913593106,-0.0003748455783352256,0.17191141843795776,0.10188107192516327,-19.55462074279785
1717248828,300413000,0.001223473447938204,0.004961810049177412,-0.7081151990627476,0.7060784293618402,-9.288186447520275e-06,-0.00015185349911917,-5.995798346702941e-05,0.16871650516986847,0.10012588649988174,-19.55417823791504
1717248828,336414000,0.001217431411121106,0.004958993420531259,-0.7081122308608331,0.7060814363444976,-0.0001543999242130667,-0.00018543083569966257,0.00013528332056012005,0.17721262574195862,0.10434611886739731,-19.561983108520508
1717248828,372414000,0.0012143186121091538,0.004959226202144676,-0.7081079365604943,0.7060857466949914,-0.00014775544696021825,-0.00012346971197985113,0.00026094779605045915,0.16977529227733612,0.10345367342233658,-19.55730438232422
1717248828,408415000,0.0012206331563630575,0.004959902041624765,-0.7081051120060262,0.7060885636925217,0.0002980275603476912,0.00036180950701236725,0.0002030181494774297,0.1687062531709671,0.10077140480279922,-19.55974578857422
1717248828,444415000,0.0012227214669508597,0.004973067622252004,-0.7081070395826768,0.7060865343880282,-0.00045115838292986155,0.0007335206610150635,-0.00014135375386103988,0.168703094124794,0.09974255412817001,-19.561283111572266
1717248828,480416000,0.001229587704711495,0.0049765599535577035,-0.7081070149166597,0.7060865225954411,4.944820102537051e-05,0.0002675270661711693,-0.00010788739018607885,0.1729689985513687,0.10113294422626495,-19.55554962158203
1717248828,516417000,0.0012254702916152283,0.004968787374176136,-0.708105428311802,0.7060881756338611,0.00013584653788711876,-0.00029916982748545706,0.0001001850760076195,0.16870565712451935,0.09963622689247131,-19.559894561767578
1717248828,552417000,0.0012195171680040298,0.004972080728226485,-0.7081018279407514,0.7060917733964017,-0.0003341760311741382,-2.0772844436578453e-05,0.00018286057456862181,0.16977037489414215,0.1010710820555687,-19.5595703125
1717248828,588418000,0.001213690484501285,0.0049758583644921705,-0.7081022643751892,0.706091319147654,-0.0003932574181817472,-0.0001930000289576128,9.468769349041395e-06,0.16977466642856598,0.1007111519575119,-19.557220458984375
1717248828,624419000,0.0012125822649351812,0.004974025445921046,-0.7080972690595083,0.7060963434727446,6.266977288760245e-05,-1.1917393749172334e-05,0.00023131856869440526,0.16977697610855103,0.09914229065179825,-19.555755615234375
1717248828,660419000,0.0012042715489102441,0.004975772547482227,-0.7080960784543432,0.7060975393634883,-0.00037536752643063664,-0.0001643404975766316,1.4285174074757379e-05,0.1676475554704666,0.10044652223587036,-19.55704116821289
1717248828,696419000,0.0012100306231004252,0.004980873404974698,-0.7080948640430653,0.7060987114007841,-2.7318743377691135e-05,0.0004558025684673339,1.716189581202343e-05,0.16977250576019287,0.10569320619106293,-19.561344146728516
1717248828,732419000,0.0012091845509898944,0.004985745536171022,-0.7080965973254694,0.7060969402782186,-8.82980166352354e-05,0.00015687975974287838,-0.0001393556740367785,0.16768044233322144,0.09956417232751846,-19.559310913085938
1717248828,768419000,0.0012115523706482812,0.004983489614560613,-0.7080990541970267,0.7060944883069058,1.9704631995409727e-05,9.643813973525539e-05,-0.0002900979307014495,0.16768401861190796,0.10165301710367203,-19.557716369628906
1717248828,804420000,0.0012060466307888867,0.004981570936342211,-0.7080967530562523,0.7060968189375473,-6.817755638621747e-05,-0.00022625990095548332,0.00017033031326718628,0.16446739435195923,0.10104703158140182,-19.56460952758789
1717248828,840421000,0.0012279756049089303,0.004974783394894501,-0.7080981894270267,0.706095388553313,-0.00022481917403638363,6.971598486416042e-05,-0.00021543055481743068,0.17190730571746826,0.09891162812709808,-19.554147720336914
1717248828,876422000,0.0012433975331985127,0.004976874752341587,-0.7081001525529246,0.7060933781270001,0.0005272409180179238,0.0006715318304486573,-0.00012599934416357428,0.17189686000347137,0.10118892043828964,-19.56006622314453
1717248828,912423000,0.0012390022143028703,0.004982077015491918,-0.7081002001316498,0.7060933014521821,-0.0003572258574422449,3.2142630516318604e-05,-0.00012447481276467443,0.17402955889701843,0.1049174889922142,-19.55778694152832
1717248828,948423000,0.0012367195550055821,0.004977235064173475,-0.7081001921857283,0.7060933475698471,0.00011533061478985474,-0.00010777443094411865,-1.2677548511419445e-05,0.17190127074718475,0.09998197108507156,-19.557533264160156
1717248828,984423000,0.0012369385585794567,0.004978624925668226,-0.7080995090197029,0.7060940224948146,-4.754137262352742e-05,0.00016470885020680726,7.06938362782239e-06,0.17295394837856293,0.10190467536449432,-19.563697814941406
1717248829,20423000,0.0012395307990819724,0.004974741990512492,-0.7080995363259163,0.7060940179328448,0.0002907763991970569,-0.00011408119462430477,-0.00012104605411877856,0.17082636058330536,0.10431366413831711,-19.56416893005371
1717248829,56423000,0.0012307588884119883,0.004970249035901437,-0.7080984317208815,0.7060951726584087,-0.0002239475870737806,-0.000550784869119525,2.723723628150765e-05,0.16658306121826172,0.10270854830741882,-19.55780029296875
1717248829,92423000,0.0012354642296037905,0.004970830910503191,-0.7081004897830152,0.7060930964378922,0.00012963928747922182,0.00034162626252509654,-0.00021369541354943067,0.16871266067028046,0.10557452589273453,-19.557052612304688
1717248829,128425000,0.0012299056846889719,0.004964147744913259,-0.7080991900695636,0.7060944565651267,1.094492199626984e-05,-0.0004304440226405859,-2.176840825995896e-05,0.16763703525066376,0.09812605381011963,-19.562299728393555
1717248829,164426000,0.0012310627793682787,0.004961603926094946,-0.7080981136789632,0.706095551873263,0.00017329938418697566,4.0570150304120034e-05,0.00013903850049246103,0.1729491502046585,0.10475865751504898,-19.56003189086914
1717248829,200426000,0.001228726299833593,0.004958391189756065,-0.7080894664696096,0.7061042501382307,0.00011007049033651128,-0.00027413293719291687,0.00061631272546947,0.17399285733699799,0.10157570987939835,-19.556917190551758
1717248829,236426000,0.0012239051119872656,0.0049532439097856405,-0.7080871878517272,0.7061065796544314,-4.71204511995893e-05,-0.0002598855644464493,0.00016924957162700593,0.17080245912075043,0.10341384261846542,-19.55683135986328
1717248829,272427000,0.0012231718862470355,0.0049503470467911,-0.7080835045131617,0.7061102948909699,9.93652138276957e-05,-0.00010338857100578025,0.00018346293654758483,0.17294368147850037,0.10269154608249664,-19.560422897338867
1717248829,308428000,0.001217071564234219,0.004959485236209172,-0.7080841560081487,0.7061095879912884,-0.0005514677031897008,0.00019438132585491985,-9.011696238303557e-05,0.17297182977199554,0.10325334221124649,-19.554353713989258
1717248829,344428000,0.0012153938650365196,0.00496014368845173,-0.7080839409739643,0.7061098018914073,-0.00011639584408840165,1.975176246560295e-06,-7.733458187431097e-05,0.17296060919761658,0.09481357783079147,-19.559072494506836
1717248829,380429000,0.0012172003526702935,0.004959645491610621,-0.7080831447956794,0.7061106006824711,0.00011810591968242079,9.358387615066022e-05,4.848740718443878e-05,0.16870799660682678,0.10004019737243652,-19.558712005615234
1717248829,416429000,0.0012246505442813317,0.0049677094881862005,-0.7080827513807206,0.706110925627549,-7.55429791752249e-05,0.0006109835812821984,-9.632399451220408e-05,0.17508669197559357,0.10079896450042725,-19.56067657470703
1717248829,452430000,0.0012249598491169242,0.004966221682903104,-0.7080820463525771,0.7061116425528695,0.00011222928878851235,4.124670158489607e-05,1.5341378457378596e-05,0.16977080702781677,0.10355155915021896,-19.55970573425293
1717248829,488431000,0.0012222694472072179,0.0049631653578001336,-0.7080792480160037,0.7061144748382657,-5.9801786846946925e-05,-0.00022735925449524075,0.00021873014338780195,0.1718965768814087,0.10024550557136536,-19.560073852539062
1717248829,524432000,0.0012169408971022199,0.004960530675828542,-0.7080770359508215,0.7061167207688586,-0.00016753494855947793,-0.00020106475858483464,7.619215466547757e-05,0.1718955785036087,0.09819570928812027,-19.5602970123291
1717248829,560432000,0.0012182602642433222,0.0049562018057383965,-0.7080787918790865,0.7061149880838411,0.0003655501059256494,-0.00010080659558298066,-0.00013994394976180047,0.17296212911605835,0.09715940058231354,-19.55862045288086
1717248829,596433000,0.0012180008140938938,0.004956375330608512,-0.7080735297424288,0.7061202640455073,-6.583703361684456e-05,2.572098082964658e-06,0.00037436344427987933,0.16763749718666077,0.10484286397695541,-19.563064575195312
1717248829,632433000,0.0012134194431920246,0.004954683565951067,-0.7080716898041612,0.7061221288289271,-0.0001415876322425902,-0.0001644931617192924,2.130450593540445e-05,0.1729670763015747,0.1004100814461708,-19.556468963623047
1717248829,668434000,0.0012139341965106572,0.004958693226891818,-0.7080700623480825,0.7061237317436873,-9.360169497085735e-05,0.00021288770949468017,0.00011703024210873991,0.16765448451042175,0.10232285410165787,-19.55361557006836
1717248829,704434000,0.001204975230283516,0.004964846061840651,-0.7080714081610477,0.7061223543289843,-0.0006295620696619153,-7.61585179134272e-05,-0.0002255354920635,0.17296351492404938,0.0999825969338417,-19.558300018310547
1717248829,740434000,0.0011958540470851527,0.004957591848040744,-0.7080683446918413,0.7061254927146606,-4.065355460625142e-05,-0.0005678586312569678,0.0002557635016273707,0.1718733161687851,0.10074459761381149,-19.557037353515625
1717248829,776435000,0.0012043001211999832,0.004960647967620562,-0.7080638197337974,0.7061299942765097,0.00017061196558643132,0.0005392096354626119,0.0002722222707234323,0.17185987532138824,0.10103205591440201,-19.5598201751709
1717248829,812437000,0.0011998292591112714,0.0049619790159389455,-0.7080607380049119,0.7061330826904615,-0.00019845024507958442,-8.408924622926861e-05,0.00010972528252750635,0.1740051805973053,0.10248277336359024,-19.561565399169922
1717248829,848437000,0.001196298856990666,0.004962746107864724,-0.7080588807736409,0.7061349455859642,-0.00014431323506869376,-0.00013226372539065778,0.00014107587048783898,0.16658063232898712,0.10299378633499146,-19.559139251708984
1717248829,884438000,0.0011967116275575361,0.004967416621360998,-0.7080569118920849,0.7061368862870958,-0.00019948877161368728,0.00034219553344883025,0.0001230728958034888,0.17190061509609222,0.0963422954082489,-19.557331085205078
1717248829,920438000,0.0011996073486321634,0.004971651774815354,-0.7080565874626449,0.7061371768796717,-4.027714021503925e-05,0.000394018687075004,-6.706410204060376e-05,0.1729554980993271,0.10121045261621475,-19.56276512145996
1717248829,956439000,0.0012316733190313447,0.004955041916744809,-0.7080540521263321,0.7061397806439742,0.00039183106855489314,-0.00017351550923194736,0.0001892481668619439,0.17189443111419678,0.10099653154611588,-19.56133460998535
1717248829,992439000,0.0012307641798203334,0.004955274441658699,-0.708052829933779,0.7061410061011246,3.189215931342915e-05,-3.723494228324853e-05,-1.9329825590830296e-05,0.16658161580562592,0.10601124167442322,-19.559070587158203
1717248830,28439000,0.0012305425941099954,0.004956028098837273,-0.7080524458535663,0.706141386318059,-4.1506173147354275e-05,0.00019806157797574997,1.3537434142563143e-06,0.16871277987957,0.10070719569921494,-19.556262969970703
1717248830,64439000,0.0012354876899355856,0.00495025071009096,-0.708050381835847,0.7061434878055497,0.00047038914635777473,-4.9886231863638386e-05,0.0001520029763923958,0.17189593613147736,0.09895657747983932,-19.560218811035156
1717248830,100440000,0.0012269948550337878,0.004944644440634657,-0.7080504632653692,0.7061434602435098,-0.00010889201803365722,-0.00045868507004342973,-4.616225851350464e-05,0.1729678362607956,0.10483083128929138,-19.55672836303711
1717248830,136441000,0.0012252791702459071,0.0049457338696983315,-0.7080498664188397,0.7061440540510898,-0.0002595068945083767,1.86389843293e-05,-0.000148510342114605,0.17401736974716187,0.09872237592935562,-19.563369750976562
1717248830,172442000,0.0012210020153512772,0.004948683025823875,-0.7080552752835516,0.706138617293745,-0.00017527553427498788,-9.456990665057674e-05,-0.00040716928197070956,0.16658824682235718,0.10678625106811523,-19.555648803710938
1717248830,208442000,0.0012194310633374728,0.004945211316225832,-0.7080541211163754,0.7061398016278624,7.665526936762035e-06,-0.00010971051233354956,0.0001380914618493989,0.1761583834886551,0.10431375354528427,-19.556936264038086
1717248830,244442000,0.0012159725039515342,0.004939086967858369,-0.708050881050417,0.7061430992897415,0.00017904301057569683,-0.00036280357744544744,0.00016973481979221106,0.1665779948234558,0.09641740471124649,-19.5595645904541
1717248830,280442000,0.0012147967115442937,0.004928743137600672,-0.708051205798639,0.7061428479614634,0.00032163423020392656,-0.0003901354211848229,-9.815608063945547e-05,0.1740303933620453,0.1026475578546524,-19.5570011138916
1717248830,316444000,0.0012201110804737573,0.004927556444671582,-0.7080503722310988,0.7061436829001859,0.00033861820702441037,0.00017881438543554395,3.682366877910681e-05,0.1697714626789093,0.0952175036072731,-19.558107376098633
1717248830,352444000,0.0012157810580750662,0.004929200031808629,-0.7080507817119953,0.7061432683106861,-0.00032899962388910353,3.010105137946084e-05,-0.00015754262858536094,0.16657565534114838,0.10881780087947845,-19.56267738342285
1717248830,388443000,0.0012178880315446697,0.004928918507836752,-0.7080448911773829,0.706149173042562,2.8718586690956727e-05,2.3034757759887725e-05,0.0004889126284979284,0.17512725293636322,0.09466765075922012,-19.558061599731445
1717248830,424445000,0.0012167207446274952,0.004926372953321413,-0.7080465083270971,0.706147571323417,0.00013053482689429075,-2.7107596906716935e-05,-0.00024882867000997066,0.1613008975982666,0.10521193593740463,-19.55875587463379
1717248830,460445000,0.001219202164262475,0.004929949866905806,-0.7080437896477135,0.7061502680603446,8.741802162148815e-07,0.0003180705534759909,0.00011309359251754358,0.17830298840999603,0.10217363387346268,-19.55185317993164
1717248830,496446000,0.0012165730930722124,0.004923483977697619,-0.7080477069532888,0.7061463898750884,0.0001436260499758646,-0.0003357137902639806,-0.00022754301608074456,0.17190785706043243,0.09912467002868652,-19.55388832092285
1717248830,532447000,0.0012127838285633614,0.004920696274591017,-0.708048315656856,0.7061458054814512,-8.083814464043826e-05,-0.0002940926351584494,-0.0001962871028808877,0.16870518028736115,0.10318199545145035,-19.56068229675293
1717248830,568447000,0.0012102578893303125,0.0049180490415811785,-0.7080486708224933,0.7061454721344365,0.00010496056347619742,-7.374994311248884e-05,-5.647847865475342e-05,0.1772223263978958,0.10669801384210587,-19.557153701782227
1717248830,604448000,0.0012065356900754567,0.004910299189964294,-0.7080494402579397,0.7061447609264775,4.599078238243237e-05,-0.0004789899103343487,-0.00013525798567570746,0.16125547885894775,0.09886845201253891,-19.562088012695312
1717248830,640448000,0.0012059327245847685,0.004912789788832608,-0.70805055936165,0.7061436225091954,-0.00011636100680334494,0.00010815860150614753,-7.470677519449964e-05,0.1740308254957199,0.10248852521181107,-19.561187744140625
1717248830,676449000,0.0012009840817483125,0.004908973644269145,-0.7080486077491677,0.7061456143597158,-1.2717484878521645e-06,-0.00027713438612408936,6.803544965805486e-05,0.16769066452980042,0.09415484219789505,-19.553041458129883
1717248830,712450000,0.0011992370874843363,0.004909687573698879,-0.7080603876509594,0.706133800520772,-7.174976781243458e-05,9.58294331212528e-05,-0.0010267397155985236,0.17193925380706787,0.10573551803827286,-19.558082580566406
1717248830,748450000,0.0011974838175636156,0.004916064724912799,-0.7080564291199516,0.7061377284369035,-0.000343608291586861,0.0002266848023282364,0.0002284658985445276,0.18045468628406525,0.09766017645597458,-19.553720474243164
1717248830,784451000,0.0012033946466175013,0.004922462910484954,-0.7080611826058824,0.7061329073814495,3.006775295943953e-05,0.0005158850690349936,-0.0003813765069935471,0.16342251002788544,0.11117061227560043,-19.562742233276367
1717248830,820451000,0.001204199102643017,0.004915015862476856,-0.708063633446919,0.7061305003422103,0.0002790546277537942,-0.00023160871933214366,-0.0002317885955562815,0.17405106127262115,0.09535206854343414,-19.560401916503906
1717248830,856452000,0.0012030183074346584,0.004919887952802074,-0.7080606954775698,0.7061334144262712,-0.0002888315648306161,0.00021750439191237092,0.0002163289609597996,0.16445356607437134,0.10672466456890106,-19.559534072875977
1717248830,892451000,0.001200147015669805,0.004916600998710414,-0.7080620231193386,0.7061321109381086,3.302338518551551e-05,-0.00020375956955831498,-0.00021179688337724656,0.17296262085437775,0.10223161429166794,-19.55911636352539
1717248830,928453000,0.0011949022542817463,0.004905545567502881,-0.7080608373433245,0.7061333857366879,0.0003010497894138098,-0.0006091141840443015,6.686216511297971e-05,0.16547608375549316,0.10002917051315308,-19.5605411529541
1717248830,964452000,0.0011924571116789635,0.004904354851221291,-0.708060256397786,0.706133980671821,-0.00012527844228316098,-7.702039874857292e-05,-5.13651366418344e-06,0.17292220890522003,0.10712562501430511,-19.561458587646484
1717248831,453000,0.0011925710093353293,0.00491085724539104,-0.7080610530181914,0.7061331364935887,-0.0002008171140914783,0.0003025048354174942,-0.00013774915714748204,0.17506848275661469,0.09913318604230881,-19.55461883544922
1717248831,36454000,0.001219980821899195,0.00491188259997455,-0.7080683268081125,0.7061257888133516,-0.00028392919921316206,0.00017483640112914145,-0.0006353651988320053,0.171893909573555,0.10122796893119812,-19.5616397857666
1717248831,72453000,0.0012194252268478175,0.004910115539763758,-0.7080645090847605,0.7061296302677431,-4.963875653629657e-06,-0.00016448205860797316,0.00022842205362394452,0.16764576733112335,0.10445869714021683,-19.5585880279541
1717248831,108455000,0.0012127571967375252,0.004913707687005551,-0.7080627164998176,0.7061314142563319,-0.0004093456664122641,-4.6945529902586713e-05,0.00011872230243170634,0.16658510267734528,0.10080266743898392,-19.556425094604492
1717248831,144455000,0.001215387499174873,0.004918829603399529,-0.7080635226083991,0.7061305657595802,-7.217839447548613e-05,0.00040438506403006613,-0.00016469847469124943,0.16870136559009552,0.09967218339443207,-19.562196731567383
1717248831,180456000,0.0012277189026929753,0.004919540831850177,-0.7080615814535047,0.7061324859357919,0.0004434894071891904,0.0006017629057168961,0.00016361629241146147,0.17404086887836456,0.1070694774389267,-19.552072525024414
1717248831,216456000,0.0012267428602698307,0.004925735702814725,-0.708062169646651,0.7061318546454465,-0.0003491082170512527,0.0002713263384066522,-0.0001868153049144894,0.1644391566514969,0.09380879998207092,-19.565288543701172
1717248831,252457000,0.0012247504729362662,0.004928017160985783,-0.7080584079055896,0.7061356141898961,-0.00011226859351154417,8.51150707603665e-06,0.0002925174485426396,0.17615769803524017,0.1080252081155777,-19.5578556060791
1717248831,288458000,0.0012217370906376192,0.004929156504467428,-0.7080583579088666,0.7061356615906287,-0.00019042595522478223,1.9294306184747256e-05,-4.519249341683462e-05,0.16551269590854645,0.0908903032541275,-19.559585571289062
1717248831,324457000,0.0012198464123690299,0.004932000884463127,-0.7080555181581191,0.7061384924700278,-8.816123590804636e-05,7.767297938698903e-05,0.0001351104147033766,0.17189767956733704,0.10529414564371109,-19.56024932861328
1717248831,360459000,0.001221373292373355,0.004939599096365205,-0.7080532343824506,0.7061407266888085,-0.0002868198789656162,0.0003752995398826897,0.00019233937200624496,0.1644597351551056,0.09577824175357819,-19.554597854614258
1717248831,396459000,0.0012137434342998,0.0049342336320567235,-0.7080537349235075,0.7061402754596366,-0.00013947840488981456,-0.0004613891651388258,-7.177845691330731e-05,0.1676417589187622,0.10986127704381943,-19.56154441833496
1717248831,432461000,0.0012068895477125238,0.004936999128168893,-0.7080532106295683,0.7061407935917513,-0.000468327256385237,-0.00014682213077321649,-7.54529974074103e-05,0.1729644238948822,0.09476819634437561,-19.557031631469727
1717248831,468461000,0.0012096789986530858,0.004937451579422171,-0.7080475675184053,0.7061464440042805,0.0002442390250507742,0.00016757010598666966,0.00039415236096829176,0.16444696485996246,0.10717492550611496,-19.563121795654297
1717248831,504462000,0.0012102381598418396,0.004933818821974557,-0.7080467510949269,0.7061472870579814,0.00014590560749638826,-3.752255724975839e-05,5.987989788991399e-05,0.16870403289794922,0.09705755859613419,-19.560373306274414
1717248831,540463000,0.0012125482902730583,0.004935471185364669,-0.708041562547105,0.706152474014413,2.4014067093958147e-05,0.0002342745865462348,0.000283612433122471,0.16977621614933014,0.1025586873292923,-19.556671142578125
1717248831,576462000,0.0012158691191946514,0.004946388695063272,-0.708039592166485,0.706154367561286,-0.0003244647814426571,0.0006108972593210638,9.08029978745617e-05,0.1708383411169052,0.10127151757478714,-19.55731201171875
1717248831,612463000,0.0012082715965745802,0.004941082983498811,-0.7080414392128974,0.706152565764671,-6.048511204426177e-05,-0.0004552192403934896,-0.0001749293296597898,0.1697683036327362,0.10497044771909714,-19.56125831604004
1717248831,648464000,0.0012058117749496509,0.004936635717899186,-0.7080427750874461,0.7061512616233296,9.015962859848514e-05,-0.00027352175675332546,-0.00021894718520343304,0.17189234495162964,0.101506806910038,-19.562524795532227
1717248831,684463000,0.001211270366993627,0.004936972281270921,-0.7080408365581191,0.7061531936448852,0.00014999577251728624,0.000291024538455531,0.00010878582543227822,0.17616035044193268,0.1016019955277443,-19.55547523498535
1717248831,720464000,0.0012125043028059239,0.0049295954150728825,-0.7080441710022066,0.7061498996899719,0.00037871376844123006,-0.00021475704852491617,-0.00029880405054427683,0.17189395427703857,0.10239093750715256,-19.561798095703125
1717248831,756464000,0.0012154745667625323,0.004932788839765256,-0.7080429280982208,0.7061511185192144,-7.060814823489636e-05,0.0002920867409557104,0.00012174145376775414,0.17406025528907776,0.10207723081111908,-19.554285049438477
1717248831,792466000,0.0012186986779778076,0.004928766272569345,-0.7080462390846578,0.7061478211781399,0.00029246267513372004,-1.0551450486673275e-06,-0.0003751818148884922,0.16874957084655762,0.10313962399959564,-19.55694580078125
1717248831,828466000,0.0012243575154225856,0.004929846274994035,-0.7080470311806307,0.7061470096238278,0.0002920810948126018,0.0003311055770609528,-6.020055661792867e-05,0.169810488820076,0.10042101889848709,-19.55801773071289
1717248831,864467000,0.0012649845537106713,0.00492802068019478,-0.7080474643214756,0.7061465164497969,0.00013910437701269984,0.000529400072991848,-0.00011768646072596312,0.1730065941810608,0.10597602277994156,-19.556177139282227
1717248831,900467000,0.0012660210892409755,0.004929022958658277,-0.7080455633091634,0.706148413721566,-7.422408998536412e-06,0.00011228237417526543,1.171398616861552e-05,0.16448649764060974,0.09811326116323471,-19.560619354248047
1717248831,936468000,0.0012577067011720743,0.004925688788088259,-0.7080477752850726,0.7061462339187798,-0.00021859545086044818,-0.0004858800384681672,-0.00015828725008759648,0.17618346214294434,0.10261634737253189,-19.563249588012695
1717248831,972468000,0.0012547265850526897,0.004920422017885902,-0.7080502952536567,0.7061437491754582,0.00015784097195137292,-0.00024274803581647575,-0.00029862660448998213,0.16342893242835999,0.0995270311832428,-19.55756187438965
1717248832,8468000,0.0012502779833702222,0.0049222592121312666,-0.7080512505599513,0.7061427863751794,-0.00025211370666511357,-0.00014929653843864799,-3.0869527108734474e-05,0.17087776958942413,0.10189492255449295,-19.55632209777832
1717248832,44467000,0.0012410843042631227,0.004911506157059605,-0.7080461064273542,0.7061480354642947,9.535146091366187e-05,-0.0006356615340337157,0.00026917076320387423,0.16980215907096863,0.10282352566719055,-19.562828063964844
1717248832,80469000,0.0012397969448692317,0.004911766522159512,-0.7080456416520491,0.7061485019390085,-0.00011622909369179979,9.59179742494598e-05,-2.4531611870770575e-06,0.17087741196155548,0.10111743956804276,-19.5564022064209
1717248832,116470000,0.0012387762689766726,0.004908043428722646,-0.7080452887221936,0.7061488834950903,0.00011289359099464491,-0.0002508237957954407,-2.8401522286003456e-05,0.16768024861812592,0.1036255955696106,-19.560022354125977
1717248832,152470000,0.0012423040879456372,0.0049122257386211045,-0.7080479954237351,0.706146134235171,-5.704534487449564e-05,0.0004221723647788167,-0.00023984492872841656,0.1761905401945114,0.09896501153707504,-19.558929443359375
1717248832,188471000,0.0012370422771814653,0.004917927888823758,-0.7080435785579691,0.7061505325173308,-0.00037713185884058475,-2.4344040866708383e-05,0.0003150504198856652,0.16875053942203522,0.10295907407999039,-19.5564022064209
1717248832,224472000,0.0012326776152040558,0.004916818104795867,-0.7080437546870065,0.7061503712767896,-0.00011618110875133425,-0.0001186412846436724,-0.0001341124443570152,0.1666223406791687,0.10285396873950958,-19.556825637817383
1717248832,260472000,0.0012362778622164033,0.004912074438281204,-0.7080413464399421,0.7061528126923196,0.00026248107315041125,-4.926132896798663e-05,0.00011841960804304108,0.17618365585803986,0.09628310799598694,-19.562196731567383
1717248832,296473000,0.001231343277946015,0.0049076697022749916,-0.7080403669450963,0.7061538340532312,7.001158905950433e-07,-0.00032208807533606887,-9.898139069264289e-06,0.16768208146095276,0.10732610523700714,-19.559600830078125
1717248832,332472000,0.0012224345672523828,0.004898385399716589,-0.708041862491786,0.7061524144498603,4.688255285145715e-05,-0.0006697956705465913,-0.000135990499984473,0.16661454737186432,0.09863749146461487,-19.56034278869629
1717248832,368475000,0.001215705259675853,0.004899220375078986,-0.7080419830518226,0.706152299391909,-0.00042354376637376845,-0.000204818497877568,-4.416166484588757e-05,0.1730019897222519,0.10335326194763184,-19.55823516845703
1717248832,404474000,0.001217467212868869,0.0048990842269337215,-0.7080419418854764,0.7061523385774252,0.0001608326710993424,0.0001581217657076195,-2.5606714189052582e-05,0.1676795780658722,0.09812521189451218,-19.559553146362305
1717248832,440475000,0.001220057763116489,0.004901450608220142,-0.7080404944073435,0.7061537690336251,-2.1625570298056118e-05,0.0003271297609899193,4.278920096112415e-05,0.16981013119220734,0.10566156357526779,-19.55900001525879
1717248832,476475000,0.0012198547109236592,0.004898039930594121,-0.7080383714816547,0.7061559216411973,0.00017733995628077537,-0.0001511398731963709,0.00017653546819929034,0.17512886226177216,0.10258424282073975,-19.55617904663086
1717248832,512475000,0.0012173452221008367,0.00489606371967349,-0.7080351442894792,0.7061591754566666,7.29861349100247e-05,-0.0001452504366170615,0.0001350420352537185,0.16976843774318695,0.10051020979881287,-19.560510635375977
1717248832,548477000,0.0012132571129299249,0.004894075209880006,-0.7080336849603784,0.7061606594794457,-0.00011269997776253149,-0.00016433597193099558,8.824370161164552e-05,0.17509020864963531,0.1051512062549591,-19.5594482421875
1717248832,584477000,0.0012111906195642382,0.004899421138327981,-0.7080327640607,0.7061615492975793,-0.0003061131574213505,0.00019777947454713285,2.9429780624923296e-05,0.16980122029781342,0.0974440723657608,-19.560298919677734
1717248832,620478000,0.0012164737335587147,0.00489857831556565,-0.708031002058544,0.7061633127302183,0.00016291867359541357,0.00022452950361184776,3.8175589907041285e-06,0.16981413960456848,0.1045326367020607,-19.55668830871582
1717248832,656479000,0.0012131072665291967,0.004893969988174997,-0.7080274563492878,0.7061669055429264,0.0001139247469836846,-0.0003284626582171768,0.00028097364702261984,0.16874678432941437,0.09931235015392303,-19.557861328125
1717248832,692480000,0.0012110845984635004,0.00489400761330076,-0.7080213529874634,0.7061730281435126,-0.00018768881272990257,-0.00011640166485449299,0.00036219393950887024,0.16981835663318634,0.09989471733570099,-19.553739547729492
1717248832,728480000,0.0011995078716924988,0.004889838916939254,-0.7080189407039299,0.7061754953697538,-0.00021289467986207455,-0.0004273677186574787,0.00015914325194898993,0.16448800265789032,0.10247337073087692,-19.560476303100586
1717248832,764480000,0.0011973366898284765,0.004888468235066352,-0.7080198341163398,0.706174612798447,-0.00011281431216048077,-6.987594679230824e-05,-5.016844443161972e-05,0.17300032079219818,0.10231120139360428,-19.55896759033203
1717248832,800481000,0.0011917299879013032,0.004888580210353057,-0.7080161714962898,0.7061782936786567,-0.0002102729195030406,-0.00025897304294630885,0.00020648111240006983,0.17300207912921906,0.10362759977579117,-19.558223724365234
1717248832,836482000,0.0011892055237679607,0.004885567664342219,-0.7080142982541577,0.7061801968948804,0.00013628423039335757,-0.00012143239291617647,0.00011754138540709391,0.17193274199962616,0.0955268070101738,-19.555585861206055
1717248832,872482000,0.0011843895646399686,0.004876539706357831,-0.7080158759272447,0.7061786856149285,8.917181548895314e-05,-0.0005087713361717761,-0.0002054026845144108,0.17079469561576843,0.10317204147577286,-19.560935974121094
1717248832,908483000,0.0011809402915357926,0.004876811003644926,-0.7080124647111523,0.7061821095922085,-0.00012522214092314243,-3.3774667826946825e-05,0.00014476579963229597,0.17186596989631653,0.10264894366264343,-19.556814193725586
1717248832,944484000,0.0011837436919352575,0.00487845073656982,-0.7080108538957909,0.7061837085596324,4.733707828563638e-05,0.00019207755394745618,0.00010336065315641463,0.1676240712404251,0.09898880124092102,-19.562698364257812
1717248832,980484000,0.0012232667854866642,0.004880514375114414,-0.7080099131979949,0.7061845700744059,2.7872589271282777e-05,0.0006541470065712929,6.87722276779823e-05,0.1708756387233734,0.1090710386633873,-19.55853843688965
1717248833,16484000,0.0012263796373684808,0.0048840293125206515,-0.7080108569864737,0.7061835941452751,-3.684939656523056e-05,0.00030002431594766676,-0.0001818406890379265,0.16768427193164825,0.09976804256439209,-19.55729103088379
1717248833,52484000,0.0012233291577729963,0.004881060336401732,-0.7080058265517892,0.7061886633786199,0.00010316158295609057,-0.00019950754358433187,0.00026577067910693586,0.16981202363967896,0.10455692559480667,-19.557823181152344
1717248833,88485000,0.0012235104177268199,0.004881897296018485,-0.7080084725371734,0.706186004475186,-3.4689077438088134e-05,4.766345955431461e-05,-0.00012798589887097478,0.17086602747440338,0.10615450888872147,-19.563234329223633
1717248833,124486000,0.0012282478443904068,0.0048750004223200825,-0.7080094881862837,0.7061850256245256,0.00043964956421405077,-2.265943658130709e-05,-0.00021261576330289245,0.16447211802005768,0.10247398167848587,-19.56229591369629
1717248833,160486000,0.0012267251739499073,0.0048642910818500855,-0.7080120453699817,0.7061825383203931,0.0004062441294081509,-0.00046522848424501717,-0.00016049292753450572,0.1697772890329361,0.1033751368522644,-19.556222915649414
1717248833,196487000,0.0012318935076856823,0.004860088018389803,-0.7080101801139412,0.7061844283456438,0.0002910006733145565,0.00016218650853261352,2.0294015484978445e-05,0.1655251532793045,0.09991849958896637,-19.55428695678711
1717248833,232487000,0.0012353425539564583,0.004861024412756149,-0.7080136672112814,0.7061809197454046,9.101166506297886e-05,0.00021006344468332827,-0.0003423193993512541,0.170842707157135,0.10690898448228836,-19.555831909179688
1717248833,268488000,0.0012314701909247907,0.004862620799981986,-0.7080158450118037,0.7061787320589217,-0.00019332960073370486,-5.575446630246006e-05,-0.00013068316911812872,0.16977013647556305,0.09831694513559341,-19.559284210205078
1717248833,304488000,0.0012342691432384479,0.004864820667276304,-0.7080090531551491,0.7061855214813644,-3.5674187529366463e-05,0.00018166963127441704,0.000463268457679078,0.17083518207073212,0.10665525496006012,-19.559810638427734
1717248833,340488000,0.00123861308603065,0.004876342917712928,-0.7080125514753082,0.7061819270349505,-0.0002240739850094542,0.0007087582489475608,-0.00035603175638243556,0.16657842695713043,0.09049174934625626,-19.558439254760742
1717248833,376489000,0.001232099257616788,0.004879113788345836,-0.7080125324281766,0.706181938387481,-0.0003883304598275572,-0.00010521308286115527,-2.7368272640160285e-05,0.17190244793891907,0.11058368533849716,-19.55849266052246
1717248833,412489000,0.0012246729499699285,0.004874533861215642,-0.7080054085655725,0.706189125190765,-9.64000792009756e-05,-0.000460694485809654,0.0004304746107663959,0.17509512603282928,0.09870404005050659,-19.555856704711914
1717248833,448490000,0.0012180324270448053,0.004874153481547473,-0.7080114303436622,0.7061831019838741,-0.00024031980137806386,-0.0002464326098561287,-0.000607504800427705,0.16551326215267181,0.10473843663930893,-19.561365127563477
1717248833,484490000,0.0012164212057793014,0.004870227804195754,-0.7080115416028704,0.706183020298359,9.951399988494813e-05,-0.00012798547686543316,7.70392143749632e-05,0.1719154566526413,0.09734027087688446,-19.55621337890625
1717248833,520491000,0.0012137515192723746,0.0048636263091758215,-0.708012891914689,0.7061817165779452,0.0001827340602176264,-0.00031269833561964333,-0.000268431002041325,0.16874340176582336,0.10601217299699783,-19.5606746673584
1717248833,556492000,0.001204754288536961,0.004859444056336202,-0.7080148569729527,0.7061797906171889,-0.00020264148770365864,-0.0004630805051419884,-0.00011189664655830711,0.16769231855869293,0.09787573665380478,-19.55271339416504
1717248833,592491000,0.0012035835261177607,0.0048589438822994255,-0.7080149025155361,0.7061797503943033,-8.819107461022213e-05,9.652681910665706e-05,-0.00013637795927934349,0.1708538830280304,0.10452520102262497,-19.558378219604492
1717248833,628492000,0.0011985407503327765,0.004862651572723,-0.7080117623271811,0.7061828817849604,-0.0003389905905351043,-9.038762073032558e-05,0.0001506142580183223,0.17083975672721863,0.10316856950521469,-19.556848526000977
1717248833,664493000,0.0011926653483664777,0.004859650735718409,-0.7080141401382608,0.7061805284120859,-3.6627545341616496e-05,-0.00029018119676038623,-0.00016419154417235404,0.1740371137857437,0.10324923694133759,-19.56015968322754
1717248833,700494000,0.0011952765359078451,0.004864797999574883,-0.7080122526900711,0.7061823809011077,-0.0001783587213139981,0.0003184035012964159,9.626538667362183e-05,0.1698160469532013,0.09929143637418747,-19.554880142211914
1717248833,736494000,0.001192134454739202,0.004861828862859232,-0.7080123573356792,0.706182301743342,3.0368470106623136e-05,-0.00021702979574911296,-4.74465086881537e-05,0.16874271631240845,0.09886293858289719,-19.559961318969727
1717248833,772495000,0.0011898311203983687,0.00486626007931768,-0.7080103064861876,0.7061843312649185,-0.00026478085783310235,0.00012735243944916874,0.00011581947183003649,0.16767765581607819,0.09714071452617645,-19.5604305267334
1717248833,808496000,0.0011914646800225456,0.004856298060122782,-0.7080033877750503,0.7061913336200886,0.000440946634626016,-0.00024856114760041237,0.00038737841532565653,0.1666252762079239,0.10568896681070328,-19.55567741394043
1717248833,844497000,0.0011896377111732205,0.004854694974316546,-0.7080050403851502,0.7061896908678605,-3.415920946281403e-05,-0.00017367600230500102,-0.00012775989307556301,0.17087101936340332,0.10420548915863037,-19.560270309448242
1717248833,880497000,0.001195378843982439,0.004856508175858998,-0.7080033862882406,0.706191327051063,0.00021495083638001233,0.000396018527681008,0.00014218996511772275,0.1676557958126068,0.09608552604913712,-19.556411743164062
1717248833,916498000,0.0011968604597726083,0.004856806385800524,-0.7080033842229572,0.7061913245612768,7.846104381314944e-06,0.00011091473425040022,-0.00011460321547929198,0.17508377134799957,0.10202173888683319,-19.562414169311523
1717248833,952499000,0.0011927638827353756,0.00484828499231234,-0.7080035690417745,0.7061912047534028,0.00015258033818099648,-0.00034033035626634955,-5.9345031331758946e-05,0.16871696710586548,0.09988602995872498,-19.55389976501465
1717248833,988499000,0.001188058051156292,0.004843593715595815,-0.7080045272736243,0.7061902841855281,2.8540895073092543e-05,-0.0004064393579028547,-0.00010996583296218887,0.16870398819446564,0.10405559837818146,-19.561458587646484
1717248834,24498000,0.0011866617450583142,0.004848529400405602,-0.7080065559437556,0.7061882187754324,-0.0002697414020076394,0.0002199621667386964,-0.00020828885317314416,0.17083480954170227,0.09907063096761703,-19.558870315551758
1717248834,60499000,0.0011845149198011623,0.004853850514132891,-0.7080092553988123,0.7061854794097727,-0.00033239182084798813,0.00015989392704796046,-0.0002818945504259318,0.17616057395935059,0.09910227358341217,-19.554977416992188
1717248834,96499000,0.0012178615216559524,0.00484972511489642,-0.7080060002040852,0.7061887146185762,0.0002695454750210047,5.043105556978844e-05,0.00020983470312785357,0.16552193462848663,0.10214150696992874,-19.55634307861328
1717248834,132500000,0.0012172306576527761,0.004838916449007473,-0.708005527094411,0.7061892641784432,0.00039317624759860337,-0.00045710979611612856,-6.0958696849411353e-05,0.17083711922168732,0.10148058086633682,-19.557994842529297
1717248834,168501000,0.001224342703604115,0.0048487087238985845,-0.7080058808297816,0.706188830072453,-0.0001643648574827239,0.0007471072603948414,-1.6956526451394893e-05,0.1676536202430725,0.10225860029459,-19.55406951904297
1717248834,204502000,0.0012262068492006285,0.0048497195931169,-0.7080050320410467,0.7061896708683777,3.9244157960638404e-05,0.00019336851255502552,1.637282912270166e-05,0.16870549321174622,0.10349832475185394,-19.56056785583496
1717248834,240503000,0.00121424930060681,0.004848970501880908,-0.7080063000625284,0.7061884253904739,-0.0004462104698177427,-0.0004497776390053332,-0.00022855836141388863,0.17294199764728546,0.0981307402253151,-19.55398178100586
1717248834,276502000,0.0012208027618657218,0.004855668512312071,-0.7080025920307096,0.7061920856266457,-3.9959748391993344e-05,0.0005369231221266091,0.0003335841465741396,0.16973042488098145,0.0939134955406189,-19.559852600097656
1717248834,312503000,0.00121737788297815,0.0048505178789872636,-0.7079957664288897,0.7061989699696289,0.00011673427798086777,-0.00027098404825665057,0.00038204455631785095,0.16974157094955444,0.10261058062314987,-19.555213928222656
1717248834,348503000,0.0012149166366552896,0.0048502145708030015,-0.7079940848453472,0.7062006621493514,-9.380355913890526e-05,2.6986279408447444e-05,0.00010041824134532362,0.17086908221244812,0.09793804585933685,-19.560365676879883
1717248834,384504000,0.0012162634059706837,0.004842050875868069,-0.707990773403577,0.7062040356880213,0.00041106893331743777,-0.00029616180108860135,0.00024133810074999928,0.16980992257595062,0.10198965668678284,-19.558557510375977
1717248834,420504000,0.0012157760233582429,0.004845223667516587,-0.707989194242102,0.7062055979193961,-0.00017331875278614461,0.00013719036360271275,9.702322131488472e-05,0.17299294471740723,0.10060001164674759,-19.56264877319336
1717248834,456505000,0.0012146739558868372,0.00484618979474797,-0.7079897769278464,0.7062050090287612,-3.9891587221063673e-05,6.124960054876283e-05,-0.0001902931253425777,0.17407259345054626,0.10254625231027603,-19.55442237854004
1717248834,492506000,0.0012154353877305115,0.0048490903271016855,-0.7079898412131047,0.7062049233606775,-0.00012120167230023071,0.00015916983829811215,-7.586059655295685e-05,0.16768081486225128,0.10020045191049576,-19.5592098236084
1717248834,528505000,0.0012196346580327798,0.004859826933355401,-0.7079870735014403,0.7062076170138246,-0.00023514145868830383,0.0006533080013468862,0.000189053185749799,0.17297321557998657,0.103061243891716,-19.553592681884766
1717248834,564507000,0.0012177098643445254,0.004848457950055637,-0.7079850048606171,0.7062097723273905,0.0002848839503712952,-0.0004749762883875519,7.33079868950881e-05,0.16657404601573944,0.09982658922672272,-19.562185287475586
1717248834,600507000,0.0012216574173046341,0.004849380699250406,-0.7079908072822253,0.7062039421186003,0.0001687112671788782,0.0003105283831246197,-0.0004552178434096277,0.16870175302028656,0.10776770859956741,-19.563203811645508
1717248834,636507000,0.0012222330487075012,0.004849770413498115,-0.7079916043600011,0.7062031393508973,-6.758205927326344e-06,-4.390571120893583e-05,-0.00011569577327463776,0.1687045842409134,0.1029023826122284,-19.560958862304688
1717248834,672508000,0.0012181551028286914,0.004853985762975005,-0.7079909019905557,0.7062038215833708,-0.0003116293519269675,0.00010035557352239266,-5.726326708099805e-05,0.16977079212665558,0.10368026793003082,-19.559734344482422
1717248834,708508000,0.001211746102218267,0.004852714735450838,-0.7079925523944853,0.7062021867602947,-0.00019651412731036544,-0.0002947890607174486,-8.871116733644158e-05,0.16984161734580994,0.10095924139022827,-19.561439514160156
1717248834,744510000,0.0012191393066902354,0.004847673244960413,-0.707992334351328,0.7062024272566744,0.0005605595652014017,0.0003089520614594221,-0.00010333944373996928,0.17091886699199677,0.10580313205718994,-19.55493927001953
1717248834,780510000,0.0012273108097908218,0.004847574952575005,-0.7079962074302477,0.7061985308605798,0.00030494050588458776,0.00032946415012702346,-0.00033517726114951074,0.16770485043525696,0.0979587659239769,-19.56156349182129
1717248834,816510000,0.0012260337713598517,0.00484900224303891,-0.707993756302012,0.7062009806392268,-0.00011570878268685192,-5.866680294275284e-05,0.00010898908658418804,0.17513181269168854,0.10482010990381241,-19.55715560913086
1717248834,852510000,0.0012282370070757674,0.004849036935912311,-0.7079951029940418,0.7061996264591938,6.969349487917498e-05,0.00017369980923831463,-0.00015416347014252096,0.16767694056034088,0.09966424852609634,-19.561193466186523
1717248834,888511000,0.0012286953294759432,0.004851029612721563,-0.7079957207004413,0.7061989926991873,-0.00014040265523362905,0.00013761823356617242,-2.341647086723242e-05,0.1730322688817978,0.10256468504667282,-19.561914443969727
1717248834,924512000,0.001261787364228085,0.004848914617562625,-0.7079951034631201,0.7061995676803582,0.0001977634383365512,-0.00015612057177349925,-0.00010388600639998913,0.16452066600322723,0.10150327533483505,-19.56285858154297
1717248834,960512000,0.001251501485171863,0.004853991593003489,-0.70799784681557,0.7061968007674378,-0.000644217012450099,-0.00016485180822201073,-0.0002636007557157427,0.17728285491466522,0.10166743397712708,-19.559579849243164
1717248834,996512000,0.0012488545034915585,0.004854290219408683,-0.7079959506470479,0.7061987044000277,-0.00019667079322971404,-4.2057468817802146e-05,0.00016872597916517407,0.1623615026473999,0.10319864749908447,-19.56010627746582
1717248835,32513000,0.001246641917930731,0.004847091664549846,-0.7079982730462945,0.7061964294371564,0.00031905871583148837,-0.00029715726850554347,-0.00022330057981889695,0.17619362473487854,0.10308369994163513,-19.55789566040039
1717248835,68513000,0.001246532212120794,0.004835296079073503,-0.7079972173470175,0.7061975688843398,0.0003887140774168074,-0.00041858432814478874,-4.7738321882206947e-05,0.16976454854011536,0.10078795254230499,-19.562639236450195
1717248835,104513000,0.0012439247013054688,0.0048263953855315934,-0.708000224649805,0.7061946193895459,0.0002111167268594727,-0.00043720073881559074,-0.0002627490321174264,0.17402710020542145,0.10496591031551361,-19.55910873413086
1717248835,140514000,0.001244874457338082,0.0048258056551551505,-0.7079968192074211,0.7061980358791282,7.430551340803504e-05,8.00404668552801e-05,0.00017361922073177993,0.16870127618312836,0.09908424317836761,-19.566585540771484
1717248835,176515000,0.0012472516636896178,0.004822468547073861,-0.7079918329691384,0.7062030533843646,0.0002898097154684365,2.522797694837209e-05,0.00035288711660541594,0.17300255596637726,0.10354145616292953,-19.557958602905273
1717248835,212515000,0.0012441681224259144,0.004827002370876989,-0.7079935699387556,0.7062012864751601,-0.0003447872877586633,0.00015781600086484104,-7.46071818866767e-05,0.17087166011333466,0.10190603137016296,-19.559587478637695
1717248835,248516000,0.0012472281883685685,0.004832553614970301,-0.707995426129192,0.7061993822055839,-1.7595179087948054e-05,0.000308062182739377,-0.00026701451861299574,0.1687472015619278,0.10412275791168213,-19.5583553314209
1717248835,284515000,0.0012550876529362437,0.004836462387384308,-0.7079959044156874,0.7061988620191708,8.130676724249497e-05,0.0006405554013326764,-9.070667147170752e-05,0.16768161952495575,0.09738639742136002,-19.558353424072266
1717248835,320517000,0.001251800351385102,0.004840414520925692,-0.707990910499563,0.7062038473650123,-0.0002765628742054105,-1.1891349458892364e-05,0.00035528966691344976,0.16767355799674988,0.10308519005775452,-19.5590763092041
1717248835,356518000,0.001247340251913432,0.004841830788685504,-0.7079893013310734,0.7062054587849406,-0.00028246676083654165,-8.11227728263475e-05,-5.7713896239874884e-06,0.17083728313446045,0.09751460701227188,-19.557313919067383
1717248835,392518000,0.0012504119488062507,0.004835309221996592,-0.7079858101497876,0.7062089980177502,0.0004346046771388501,-6.953851698199287e-05,0.00026057465584017336,0.17189663648605347,0.10463974624872208,-19.56070327758789
1717248835,428519000,0.0012514977274338333,0.004830600985433546,-0.7079844532644243,0.7062103886119432,0.00021859072148799896,-7.276920223375782e-05,7.066400576150045e-05,0.16978862881660461,0.10406923294067383,-19.559152603149414
1717248835,464519000,0.0012446935788612149,0.004839819057481233,-0.7079762663037144,0.7062185449561897,-0.0006760143442079425,0.00011626378545770422,0.0006012194789946079,0.16980481147766113,0.1036934033036232,-19.561538696289062
1717248835,500520000,0.0012364607180473898,0.004836320849957859,-0.7079749012517996,0.7062199518301884,-0.00011954495130339637,-0.000488964666146785,-4.175298090558499e-05,0.16980381309986115,0.10134870558977127,-19.561723709106445
1717248835,536521000,0.0012383646663000104,0.00483202572457045,-0.7079732047701089,0.7062216785881695,0.00017731379193719476,7.174396887421608e-05,6.58683929941617e-05,0.17299337685108185,0.0998367890715599,-19.562305450439453
1717248835,572521000,0.001239676127848477,0.004834773659912043,-0.7079718389700799,0.7062230266651454,0.00011113076470792294,0.0002318269689567387,0.0001584671117598191,0.16875219345092773,0.10251843184232712,-19.55544662475586
1717248835,608522000,0.0012345846256318193,0.004841417018981302,-0.7079730142700832,0.706221811860398,-0.0005837497301399708,9.861587022896856e-05,-0.0001223194267367944,0.17084011435508728,0.10488775372505188,-19.559125900268555
1717248835,644522000,0.0012377160553956091,0.004841688645980824,-0.7079731386568058,0.7062216798218907,8.684264321345836e-05,0.00015772653569001704,-9.57745432970114e-05,0.16654394567012787,0.10090633481740952,-19.55844497680664
1717248835,680523000,0.0012400475344229096,0.004844630788312243,-0.7079669306886998,0.7062278788647889,4.87991092086304e-05,0.00018712060409598053,0.00044225496822036803,0.16441109776496887,0.10170028358697891,-19.561487197875977
1717248835,716524000,0.001237327616078852,0.004849827077132428,-0.7079622226400732,0.7062325675811189,-0.0003105393552687019,0.00016251752094831318,0.0001993213372770697,0.169765904545784,0.1001422330737114,-19.555156707763672
1717248835,752523000,0.0012383735482238906,0.004851799272676938,-0.7079619986237735,0.7062327767665593,-0.00010698613186832517,0.00019710692868102342,5.119340858072974e-05,0.16764624416828156,0.10463005304336548,-19.558359146118164
1717248835,788525000,0.0012350158121778644,0.00485271466831616,-0.7079647284968102,0.7062300397892527,-0.00018485444888938218,-0.00021694586030207574,-0.00032105602440424263,0.17085570096969604,0.10469542443752289,-19.55743408203125
1717248835,824524000,0.0012321625139116905,0.0048535545375780285,-0.7079673746835831,0.7062273863052358,-0.00010093042510561645,0.00011596707190619782,-0.0002422537945676595,0.17619402706623077,0.10420181602239609,-19.557849884033203
1717248835,860526000,0.0012246791847640632,0.004860591484517281,-0.7079669475654211,0.7062277790955375,-0.0005753742880187929,-8.234137567342259e-06,-5.820289516123012e-05,0.16874611377716064,0.10299060493707657,-19.55877113342285
1717248835,896527000,0.0012264604623291866,0.004863699144941922,-0.7079653265985157,0.7062293795641886,7.569281478936318e-06,0.00031017596484161913,0.00014992566138971597,0.1719292849302292,0.10437150299549103,-19.56319808959961
1717248835,932527000,0.001222947033339477,0.004858324471713384,-0.7079646900913036,0.7062300607222876,3.503547122818418e-05,-0.00033621257171034813,-0.00012874013918917626,0.16768574714660645,0.10030713677406311,-19.556589126586914
1717248835,968528000,0.0012150889929044676,0.00486003044805759,-0.7079621527972358,0.7062326060650885,-0.00047652344801463187,-0.00012493590475060046,0.0002847696596290916,0.17194218933582306,0.10137710720300674,-19.55586051940918
1717248836,4528000,0.0012425149150276707,0.004854205977688066,-0.7079601299072248,0.7062346262417026,0.0002664400089997798,-0.0003640882787294686,6.76650379318744e-05,0.16555610299110413,0.10424816608428955,-19.558387756347656
1717248836,40528000,0.0012393128429096308,0.004861621253885289,-0.7079616364697978,0.7062330706144161,-0.0004311666707508266,0.00016425407375209033,-0.0001251322973985225,0.16874518990516663,0.10319201648235321,-19.559295654296875
1717248836,76529000,0.0012370211402855972,0.004849316252082772,-0.707962520807518,0.7062322727279251,0.00041701033478602767,-0.0004981265519745648,-0.00015812490892130882,0.17086215317249298,0.10027311742305756,-19.564414978027344
1717248836,112529000,0.001242491935784334,0.0048574880394138265,-0.70795610838593,0.7062386350397335,-8.676187280798331e-05,0.0005716642481274903,0.00042868941091001034,0.1729952096939087,0.09771864861249924,-19.561004638671875
1717248836,148530000,0.0012413127581129633,0.004858911947702942,-0.70795748773246,0.7062372446146299,-0.00014230870874598622,4.807264849659987e-05,-0.00020602447330020368,0.16874442994594574,0.09961023926734924,-19.559158325195312
1717248836,184529000,0.001249636640634317,0.004864683994650053,-0.7079602261767207,0.7062344450745127,0.0001076610860764049,0.0005852724425494671,-0.00023042825341690332,0.17087358236312866,0.1017068475484848,-19.558536529541016
1717248836,220531000,0.0012451046812447626,0.004865262911359497,-0.7079594224475458,0.7062352547833288,-0.00015250559954438359,-0.00010056067549157888,-3.565433871699497e-06,0.16661955416202545,0.09967047721147537,-19.557828903198242
1717248836,256532000,0.0012421186741739978,0.004874490688568493,-0.7079525395809667,0.7062420960142394,-0.0006093704723753035,0.0003297071671113372,0.0004457258037291467,0.16874578595161438,0.10778267681598663,-19.559667587280273
1717248836,292532000,0.0012460808540996362,0.004872936430159469,-0.7079563387772058,0.7062382913423958,0.0003169445844832808,0.00019188477017451078,-0.0002881001855712384,0.17087052762508392,0.09973966330289841,-19.55986213684082
1717248836,328533000,0.0012495849403985945,0.004874909625387122,-0.7079546834445041,0.7062399308893635,-3.562301935744472e-05,0.00020297984883654863,4.511656516115181e-05,0.1687414050102234,0.1023486778140068,-19.561185836791992
1717248836,364533000,0.001246435866305429,0.004869520398310109,-0.7079556888007171,0.7062389658348114,0.00010718936391640455,-0.0002795611508190632,-0.00016261226846836507,0.17296873033046722,0.10143443942070007,-19.557958602905273
1717248836,400533000,0.001245149763919454,0.004854211761792866,-0.7079550784985816,0.7062396852756889,0.0006429649074561894,-0.0006618077168241143,5.5909920774865896e-05,0.17295397818088531,0.10074599087238312,-19.56351089477539
1717248836,436534000,0.001244810179650255,0.004851200844433004,-0.7079520262554568,0.7062427662063355,1.2287466233829036e-05,4.472930959309451e-05,0.00024431158090010285,0.16873742640018463,0.10480166226625443,-19.55702018737793
1717248836,472533000,0.0012430548471492097,0.004848660879550743,-0.7079479183941074,0.7062469045197804,0.00010046461102319881,-0.00025143969105556607,0.0001607700251042843,0.17406627535820007,0.09710373729467392,-19.55697250366211
1717248836,508534000,0.001241249179748936,0.004852344999333114,-0.7079447359939179,0.7062500724438782,-0.00021286132687237114,0.0001304992038058117,0.0002193956752307713,0.17194494605064392,0.10088495165109634,-19.55431365966797
1717248836,544536000,0.0012417918485606854,0.0048557146026172275,-0.7079418503647268,0.7062529408723688,-0.00010311626829206944,0.00019933335715904832,0.0001579410454723984,0.1708395928144455,0.1009160652756691,-19.55881690979004
1717248836,580536000,0.0012385990268966598,0.004852151469226116,-0.7079396438025377,0.7062551827996071,-7.712571823503822e-05,-0.00011152885417686775,0.000178383503225632,0.17296132445335388,0.10305517166852951,-19.559932708740234
1717248836,616537000,0.001245603817451398,0.004851765119021821,-0.7079379204609345,0.706256900582081,0.00033762259408831596,0.0002041366242337972,7.008958164078649e-06,0.16977082192897797,0.09870891273021698,-19.558975219726562
1717248836,652538000,0.0012489730026775062,0.004851634688976904,-0.7079373319815017,0.7062574854075504,0.00013543818204198033,0.0002682578924577683,-1.359721954941051e-05,0.1708356887102127,0.10094156116247177,-19.55868148803711
1717248836,688538000,0.0012385056593109066,0.004844452009769421,-0.7079383074567102,0.7062565753490618,-0.00014941394329071045,-0.0007137108477763832,-9.329900058219209e-05,0.16764593124389648,0.10010232031345367,-19.557849884033203
1717248836,724539000,0.001225789600773792,0.0048408457978762545,-0.7079366484640135,0.7062582851997954,-0.00028017922886647284,-0.0005757184117101133,8.923422137741e-05,0.1708381623029709,0.1050172969698906,-19.5579776763916
1717248836,760539000,0.0012223218850557888,0.004839356666435757,-0.7079310599351051,0.7062639031802651,-0.00010172539623454213,-8.051168697420508e-05,0.00037383558810688555,0.16976876556873322,0.09903653711080551,-19.560117721557617
1717248836,796539000,0.0012239889669622356,0.004835995430305649,-0.7079281782836713,0.7062668117582545,0.00013762827438768,-0.00013222030247561634,0.00014161244325805455,0.17083343863487244,0.10047025978565216,-19.56202507019043
1717248836,832541000,0.0012217532230985552,0.004840613454023313,-0.7079256209161592,0.7062693473675048,-0.00018233736045658588,6.841525464551523e-05,9.508241055300459e-05,0.17087681591510773,0.10320518165826797,-19.557029724121094
1717248836,868541000,0.0012153427133858618,0.004832819126174572,-0.7079244114179891,0.7062706241377142,7.62201761972392e-06,-0.00030324116232804954,8.07942560641095e-05,0.1708737313747406,0.10530392080545425,-19.55898666381836
1717248836,904541000,0.0012136770010090045,0.0048369328679902426,-0.7079233729808145,0.706271639708147,-0.00018235553579870611,4.91806713398546e-05,2.5092407668125816e-05,0.16662289202213287,0.09791704267263412,-19.5557861328125
1717248836,940542000,0.0012156390315751185,0.004836412413853491,-0.7079194615295622,0.7062755604750902,8.92162715899758e-05,0.00010158897202927619,0.0002319718332728371,0.16980914771556854,0.10922281444072723,-19.560056686401367
1717248836,976543000,0.0012106422189820472,0.0048305218136576785,-0.70791525006683,0.7062798306105329,-1.2538690498331562e-05,-0.00033995750709436834,0.00038139530806802213,0.1719372570514679,0.10185603052377701,-19.558568954467773
1717248837,12543000,0.001207108405117483,0.004826663755132992,-0.7079162867846202,0.7062788239154338,5.5727239669067785e-05,-0.00031476965523324907,-0.00020675321866292506,0.17194552719593048,0.10385580360889435,-19.554452896118164
1717248837,48544000,0.0012049645601490226,0.00483434455767392,-0.7079159396400895,0.7062791229935906,-0.0004506588738877326,0.00033947310294024646,-4.988026375940535e-06,0.171937495470047,0.10059816390275955,-19.558246612548828
1717248837,84545000,0.0012035199629578733,0.00484067966420478,-0.7079200638942273,0.7062749482291442,-0.00020071434846613556,0.00016835637507028878,-0.00031543750083073974,0.17193804681301117,0.1055874228477478,-19.558704376220703
1717248837,120545000,0.001235952038418009,0.0048430481870710244,-0.7079170163711381,0.7062779305903605,-7.831441325834021e-05,-4.887788600171916e-05,0.00010307769844075665,0.16873593628406525,0.09819971024990082,-19.56348419189453
1717248837,156545000,0.001237782469860719,0.004841708108785429,-0.707917951664868,0.7062769991071238,0.00011677492875605822,0.0001078883433365263,-9.55012728809379e-05,0.17087873816490173,0.1009657233953476,-19.557880401611328
1717248837,192545000,0.0012330430242012077,0.004846537223407373,-0.7079156453838561,0.7062792859079198,-0.00029068722506053746,-2.0852539819316007e-05,8.299855107907206e-05,0.1741034984588623,0.10262296348810196,-19.557897567749023
1717248837,228547000,0.0012368182046636235,0.004840026293496261,-0.7079106382954393,0.7062843426088042,0.0003188837436027825,-3.354874934302643e-05,0.00033864108263514936,0.1709023416042328,0.10059092193841934,-19.562969207763672
1717248837,264547000,0.0012299506135288192,0.004833212526768514,-0.7079116532227823,0.7062833839964994,-2.4095365915854927e-06,-0.0004750502703245729,-0.00013044937804806978,0.17196734249591827,0.10406061261892319,-19.55613899230957
1717248837,300548000,0.0012325508534513413,0.004836218743976059,-0.7079086437233635,0.7062863753099037,-2.5834504413069226e-05,0.0002577874402049929,0.0002705862862057984,0.17405925691127777,0.09673898667097092,-19.5606689453125
1717248837,336549000,0.0012287310824996114,0.004836147754009383,-0.7079067498591453,0.7062882806607298,-0.00019937529577873647,-3.4862412576330826e-05,5.081005292595364e-05,0.16981373727321625,0.10138358920812607,-19.55643081665039
1717248837,372550000,0.0012212249717998673,0.004836091680190144,-0.7079062030484673,0.7062888421264569,-0.0002956203243229538,-0.0003313646011520177,-3.9486192690674216e-05,0.17512841522693634,0.09976629912853241,-19.558204650878906
1717248837,408550000,0.0012286809619695008,0.004839646946206973,-0.7079068943015024,0.7062881120059514,0.00017106675659306347,0.00046750562614761293,-0.00016920937923714519,0.1751314401626587,0.10411739349365234,-19.5572452545166
1717248837,444550000,0.0012276674341583753,0.004835223825374792,-0.7079118499770243,0.706283176994424,0.00016703725850675255,-5.398688881541602e-05,-0.0004726095648948103,0.1708761304616928,0.10049159079790115,-19.55698585510254
1717248837,480552000,0.0012284047429762402,0.004831853030082972,-0.7079192400005905,0.7062757916388396,0.0001880465861177072,-0.0001687788317212835,-0.0005501647829078138,0.1666085571050644,0.10310113430023193,-19.564210891723633
1717248837,516552000,0.0012304341464045043,0.004833911866233099,-0.7079148478213562,0.7062801763903239,8.41417750052642e-06,0.0002981213910970837,0.00035001026117242873,0.168746218085289,0.10484318435192108,-19.558990478515625
1717248837,552552000,0.001234120238040817,0.004834876023787567,-0.7079152621612234,0.7062797480604119,-2.754082925093826e-05,0.0001884989469544962,-0.00018754086340777576,0.17193149030208588,0.10038111358880997,-19.561416625976562
1717248837,588553000,0.001228046933759416,0.004834820662830739,-0.7079201458422751,0.7062748640016423,-7.011056004557759e-05,-0.0001985907438211143,-0.0004233786021359265,0.16980580985546112,0.10287745296955109,-19.56088638305664
1717248837,624553000,0.001231304242920815,0.004834638407895138,-0.7079184210866319,0.7062765883473249,6.134458817541599e-05,0.00013937820040155202,6.982379272812977e-05,0.1676793247461319,0.10229448229074478,-19.560314178466797
1717248837,660553000,0.001225102949601157,0.004843502575187704,-0.7079205495016384,0.7062744050288564,-0.0005796107579953969,0.00015343056293204427,-0.0002589145733509213,0.16768360137939453,0.09918920695781708,-19.557567596435547
1717248837,696554000,0.0012204307579728331,0.004838946024224863,-0.7079223488160219,0.7062726408384701,-3.869325155392289e-05,-0.00029982131673023105,-6.495782145066187e-05,0.17087657749652863,0.10124431550502777,-19.55686378479004
1717248837,732554000,0.0012187029002657282,0.004836637375008155,-0.707915502848411,0.7062795215274368,-1.934297642947058e-06,-0.0001787807123037055,0.00045774795580655336,0.1719702035188675,0.10134364664554596,-19.551982879638672
1717248837,768555000,0.001213889399301038,0.004834865204082087,-0.7079195142280578,0.7062755212564679,-5.351618892746046e-05,-0.00011943787831114605,-0.0004858859465457499,0.17091414332389832,0.10419765114784241,-19.557212829589844
1717248837,804555000,0.0012161147403721134,0.004834543242702815,-0.7079210318912501,0.7062739984330446,6.622622458962724e-05,4.0933449781732634e-05,-8.955991506809369e-05,0.17728188633918762,0.10234329104423523,-19.557981491088867
1717248837,840556000,0.0012208625604379268,0.0048421792829933565,-0.7079152123039619,0.7062797710419267,-0.00012581306509673595,0.0005548665067180991,0.00037261086981743574,0.16555342078208923,0.10417983680963516,-19.559804916381836
1717248837,876557000,0.0012201693370387223,0.004837655657036492,-0.7079138119819224,0.7062812068006312,0.00017496224609203637,-0.00010050945274997503,-2.6195226382697e-05,0.16981039941310883,0.10424595326185226,-19.558635711669922
1717248837,912557000,0.001223233008475123,0.004835187127230109,-0.7079131131889471,0.7062819188125835,0.00017721677431836724,0.00014933274360373616,0.00019195278582628816,0.17087170481681824,0.0994059145450592,-19.55918312072754
1717248837,948557000,0.0012234007355719264,0.004823664386775976,-0.7079028359262335,0.7062922981599896,-1.5831454220460728e-05,-0.00017351211863569915,5.1881583203794435e-05,0.16980929672718048,0.10145244747400284,-19.55881690979004
1717248837,984558000,0.001222472802862616,0.004827475204867595,-0.7079059672491765,0.7062891352529787,-0.00027576458523981273,0.00023235254047904164,-0.00032941639074124396,0.17299853265285492,0.10427162796258926,-19.560216903686523
1717248838,20558000,0.0012226499050859473,0.004831320592554446,-0.7079046359486149,0.7062904429984883,-9.312628390034661e-05,0.00014836322225164622,1.424210950062843e-06,0.16770273447036743,0.10496462881565094,-19.563745498657227
1717248838,56558000,0.0012236084750892385,0.004832585880214579,-0.7079062270008223,0.7062888379901457,-9.308310109190643e-05,0.00019970555149484426,-0.00017278832092415541,0.1687821000814438,0.10085681825876236,-19.5591983795166
1717248838,92558000,0.001225161968281014,0.00482930711313426,-0.7079092804136179,0.7062857973053346,0.000275080295978114,-0.00013319693971425295,-0.00021988798107486218,0.16664521396160126,0.10297194868326187,-19.553497314453125
1717248838,128560000,0.0012171028583949578,0.0048254038945152785,-0.7079110752382823,0.7062840389622761,-0.00012122328917030245,-0.00040508894016966224,-0.00019207214063499123,0.16661979258060455,0.09963363409042358,-19.557697296142578
1717248838,164560000,0.0012127624637141895,0.004824221493231836,-0.7079109570597674,0.7062841729565479,-0.00016530795255675912,-0.00015752797480672598,-6.840041896793991e-05,0.16982102394104004,0.10465619713068008,-19.553028106689453
1717248838,200562000,0.00122069240383811,0.004826832303407998,-0.7079090868739016,0.7062860159463225,0.00023226688790600747,0.0005615785485133529,0.00013601176033262163,0.16874812543392181,0.09860935807228088,-19.557035446166992
1717248838,236562000,0.0012189466043556866,0.004829324119301101,-0.7079200572164526,0.706275006203944,-0.00023138104006648064,-0.0005756579921580851,0.00010666035814210773,0.16767722368240356,0.10003866255283356,-19.56110382080078
1717248838,272562000,0.00121971502723723,0.0048350874225035635,-0.7079221647434738,0.7062728530035565,-0.00024086772464215755,0.0001896260364446789,-0.0002705923398025334,0.16980929672718048,0.09734909236431122,-19.558191299438477
1717248838,308563000,0.0012079689874741509,0.004836534832025287,-0.707919081897475,0.7062759533122871,-0.0004905921523459256,-0.00041009322740137577,8.37193729239516e-05,0.17087294161319733,0.10055913031101227,-19.55870246887207
1717248838,344563000,0.0012000494973126484,0.0048314412638671405,-0.7079178959992758,0.7062771903300266,-9.322322148364037e-05,-0.0003930820676032454,0.00015747174620628357,0.1698148548603058,0.10097910463809967,-19.55577278137207
1717248838,380564000,0.0011972931865035323,0.004837219425978007,-0.7079130995429519,0.706281963023792,-0.00033897379762493074,0.00010728442430263385,0.00031939285690896213,0.16662201285362244,0.10133319348096848,-19.556758880615234
1717248838,416565000,0.0011950910205741248,0.004831390343195546,-0.7079120869982168,0.7062830215336013,0.00016717454127501696,-0.00017062840925063938,-6.58907592878677e-05,0.16981007158756256,0.10081464052200317,-19.558298110961914
1717248838,452566000,0.0011968210630497595,0.004830450490251189,-0.7079166398939212,0.7062784616061178,0.00010925293463515118,-1.9390901798033156e-05,-0.000300664862152189,0.16981305181980133,0.09897315502166748,-19.55643653869629
1717248838,488566000,0.0012036939896268096,0.004827920138650432,-0.7079122790114037,0.7062828381978387,3.080857641180046e-05,-9.440933354198933e-05,-2.050607872661203e-05,0.17087490856647491,0.10484142601490021,-19.558286666870117
1717248838,524565000,0.0012133782595668621,0.004826690301107328,-0.7079174652560445,0.7062776317846923,0.00034828236675821245,0.00028649947489611804,-0.00044385308865457773,0.1698170006275177,0.0991191491484642,-19.554346084594727
1717248838,560566000,0.0012175847784301733,0.004829129098661367,-0.7079236367794987,0.7062714219677476,6.446507904911414e-05,0.0004440267803147435,-0.000521634821780026,0.17296473681926727,0.10195181518793106,-19.562381744384766
1717248838,596567000,0.0012244703184719958,0.004829023817497395,-0.7079213642113521,0.7062736886608103,0.00029606951284222305,0.00022072182036936283,6.35946198599413e-05,0.1676495373249054,0.10093694180250168,-19.556055068969727
1717248838,632567000,0.0012172817642488003,0.0048247391168232834,-0.7079246770763257,0.706270409760979,-7.368976366706192e-05,-0.00034754807711578906,-0.0003529064415488392,0.1729603111743927,0.10002519190311432,-19.560016632080078
1717248838,668568000,0.001217073305205079,0.0048223826587074775,-0.707925072026679,0.7062700303383148,4.858053580392152e-05,-0.00021304872643668205,-5.649316881317645e-05,0.17194236814975739,0.10165993124246597,-19.555809020996094
1717248838,704569000,0.0012196587859698142,0.004812753438350055,-0.7079232853785028,0.706271882390694,0.0004071954754181206,-0.0001172659030999057,0.00016862258780747652,0.16661973297595978,0.10118681192398071,-19.55796241760254
1717248838,740569000,0.0012160398725437286,0.004807864644878392,-0.7079188143329042,0.706276403398896,0.00014223453763406724,-0.00041725748451426625,0.0003055611450690776,0.17403383553028107,0.09974592179059982,-19.559162139892578
1717248838,776569000,0.0012294634876190075,0.004816076162817237,-0.7079194739464515,0.7062756630645756,-0.0003586225211620331,1.0611355719447602e-05,1.7774122170521878e-05,0.16658848524093628,0.10157865285873413,-19.554738998413086
1717248838,812570000,0.0012268888881324651,0.004815217824564173,-0.7079212899804294,0.7062738531288011,-0.00010582272807369009,-7.101640949258581e-05,-0.00023517962836194783,0.16871501505374908,0.09783408790826797,-19.554630279541016
1717248838,848571000,0.0012285144501343697,0.004809742762301142,-0.7079212009485218,0.7062739768492173,0.00039879040559753776,-9.89059335552156e-05,-2.437268994981423e-05,0.16875693202018738,0.09934361279010773,-19.55244255065918
1717248838,884572000,0.0012245274387298658,0.004807989986271379,-0.7079157824152047,0.7062794268363706,-0.00019732968939933926,-0.0001085945259546861,0.0003324695862829685,0.17087137699127197,0.1016894206404686,-19.559707641601562
1717248838,920573000,0.0012216064404333303,0.004801767245572937,-0.7079196976593135,0.7062755498918041,0.00017239195585716516,-0.0003335273650009185,-0.0003522434853948653,0.17299972474575043,0.10282068699598312,-19.559364318847656
1717248838,956572000,0.0012195169510852567,0.004799502799818716,-0.7079159243353451,0.7062793509821127,2.8024236598866992e-05,-0.00012171925482107326,0.0002664107014425099,0.1687452644109726,0.10445480048656464,-19.559438705444336
1717248838,992572000,0.0012203930772878107,0.004798131185460172,-0.7079165229964264,0.706278758739433,5.0563685363158584e-05,7.456266757799312e-05,-0.00011523956345627084,0.17193038761615753,0.10205648839473724,-19.56226348876953
1717248839,28573000,0.0012274361070195477,0.004796709104699125,-0.7079206159748513,0.7062746537007788,0.000278931314824149,0.00022186727437656373,-0.0003658026398625225,0.17300820350646973,0.1030101403594017,-19.55486488342285
1717248839,64574000,0.0012448184286031072,0.004871103105615934,-0.7079082356852092,0.7062865230419368,-0.0002449587918817997,0.0001125420312746428,0.0003371856873854995,0.17086926102638245,0.09778475761413574,-19.560251235961914
1717248839,100574000,0.001244818431016215,0.004870822633552219,-0.707908953274146,0.7062858057389015,1.8557164366939105e-05,-1.741752384987194e-05,-6.413032679120079e-05,0.17194464802742004,0.10464709252119064,-19.55504035949707
1717248839,136574000,0.0012481218951640389,0.004866975361340974,-0.7079034228611483,0.7062913695098059,0.0002841766399797052,7.856849697418511e-05,0.00037066315417177975,0.16874147951602936,0.10265203565359116,-19.56119155883789
1717248839,172574000,0.0012542233442396566,0.004858666610821598,-0.7079027221988152,0.7062921181678831,0.0005598811549134552,-4.6936696890043095e-05,-9.603147191228345e-05,0.1687471866607666,0.10429713875055313,-19.558393478393555
1717248839,208576000,0.0012509283968656021,0.004856939952476469,-0.7078946091786883,0.7063002673142609,-7.379821909125894e-05,-0.0001016410969896242,0.0007526374538429081,0.16981327533721924,0.10330964624881744,-19.55696678161621
1717248839,244576000,0.0012479582052439607,0.0048550843268857745,-0.7078901174261059,0.7063047871896034,6.351378397084773e-05,-0.00015992311818990856,0.0001354770065518096,0.1772560477256775,0.1050325408577919,-19.558870315551758
1717248839,280578000,0.0012508810092416234,0.00485226183025873,-0.707887442466113,0.7063074823691285,5.328348561306484e-05,2.0858120478806086e-05,0.00014419986109714955,0.1698119193315506,0.1014542356133461,-19.557411193847656
1717248839,316577000,0.0012493958487124078,0.004850828669496762,-0.7078871155270516,0.706307822512269,0.00010150753223570064,-5.267838423606008e-05,5.5766191508155316e-05,0.1729995757341385,0.10277469456195831,-19.559429168701172
1717248839,352577000,0.0012555342691460243,0.004849187430880445,-0.7078857374690484,0.7063092040338004,0.0002536460815463215,0.000185844735824503,4.239793270244263e-05,0.17407168447971344,0.09971170127391815,-19.55448341369629
1717248839,388578000,0.001255861115187262,0.004841241809357719,-0.7078870548905013,0.7063079375945416,0.0003306122962385416,-0.00022058261674828827,-0.00019618601072579622,0.1740627884864807,0.09894402325153351,-19.55911636352539
1717248839,424578000,0.001262873992844661,0.0048417806818082006,-0.7078849040935363,0.7063100769956439,0.00023369361588265747,0.0004042689106427133,0.00016307031910400838,0.17087459564208984,0.10083282738924026,-19.557857513427734
1717248839,460579000,0.0012627142171696137,0.004837585014850474,-0.7078833751615801,0.7063116383678519,0.00018599822942633182,-0.00016512170259375125,6.176537135615945e-05,0.16767539083957672,0.10496442019939423,-19.562814712524414
1717248839,496580000,0.001260695909498806,0.00483460752517731,-0.7078876054331241,0.7063074226496977,7.1608101279707626e-06,-7.832606934243813e-05,-0.00038876020698808134,0.1698092520236969,0.10241592675447464,-19.558977127075195
1717248839,532581000,0.0012629128914265911,0.0048351357281207884,-0.7078914327692641,0.7063035791537501,3.505696076899767e-05,5.941842027823441e-05,-0.00036631475086323917,0.17299742996692657,0.10349663347005844,-19.560691833496094
1717248839,568581000,0.0012622926713085382,0.004832995951610172,-0.707893720721638,0.7063013018041374,0.00010734707757364959,-3.183788794558495e-05,-0.00030522479210048914,0.16981016099452972,0.10290389508008957,-19.558568954467773
1717248839,604582000,0.0012618627832999248,0.004842282990430059,-0.7078962672601704,0.7062986866736155,-0.00033950581564567983,0.0003709256707224995,-0.00025697139790281653,0.16980500519275665,0.1053883284330368,-19.561695098876953
1717248839,640583000,0.0012613202569771251,0.004839616894681967,-0.7078948962827807,0.7063000799917224,-2.7585338102653623e-05,-5.284351937007159e-05,0.00020408222917467356,0.17406640946865082,0.10432647168636322,-19.557992935180664
1717248839,676583000,0.0012599754446872076,0.004839745820564846,-0.7078942639391939,0.7063007152794468,-1.4611777260142844e-05,-4.231073762639426e-05,-7.497059414163232e-05,0.17087240517139435,0.1016460657119751,-19.55915069580078
1717248839,712584000,0.0012623368185649346,0.004830955311701674,-0.7078943661448622,0.7063006688067741,0.00047327863285318017,-0.00021195522276684642,-5.031046748626977e-05,0.16874270141124725,0.09951911121606827,-19.560068130493164
1717248839,748583000,0.0012541985251352048,0.004830082989808406,-0.7078953825439207,0.7062996705771335,-0.000246915384195745,-0.0003484607732389122,-0.00013242084241937846,0.16876019537448883,0.10359954833984375,-19.56021499633789
1717248839,784584000,0.0012494968843023823,0.00482716303975723,-0.7078918241766156,0.7063032652610546,-4.8918147513177246e-05,-0.0002540776040405035,0.00028285777079872787,0.16985589265823364,0.10346678644418716,-19.554203033447266
1717248839,820585000,0.0012394297596765326,0.004818207071037713,-0.7078925589510999,0.7063026077228902,-6.103246778366156e-05,-0.0006143348873592913,-0.00012726409477181733,0.168777734041214,0.10448100417852402,-19.56208038330078
1717248839,856586000,0.001241048736937384,0.004822443577289153,-0.7078899620382502,0.7063051787162975,-0.0001096772393793799,0.00026238596183247864,0.00012123025953769684,0.16770119965076447,0.0988021269440651,-19.55476188659668
1717248839,892586000,0.0012818452974526807,0.004854737846288027,-0.7078917192159228,0.706303123494865,-0.00018153039854951203,4.1684877942316234e-05,-0.00029150108457542956,0.16980956494808197,0.09897361695766449,-19.55828857421875
1717248839,928587000,0.0012877224009702332,0.00485572455889497,-0.707888091907227,0.7063067414700015,0.00013701220450457186,0.0002546514733694494,0.0003232029848732054,0.16874590516090393,0.10112950950860977,-19.558595657348633
1717248839,964588000,0.001287592290700223,0.004863878555209344,-0.7078817210259009,0.7063130706909662,-0.0002851394528988749,0.00036846514558419585,0.0003953593841288239,0.16980817914009094,0.10073558986186981,-19.55929946899414
1717248840,586000,0.0012914422561670761,0.00486128809970883,-0.7078871274609684,0.7063076630123515,0.00027881673304364085,0.0001161826730822213,-0.0004742497985716909,0.17299886047840118,0.09915561228990555,-19.559268951416016
1717248840,36588000,0.0012909566883849402,0.004860508290073913,-0.7078871328281338,0.7063076638875972,3.550863402779214e-05,1.7057531294994988e-05,-5.5667496781097725e-05,0.17192970216274261,0.10385329276323318,-19.562898635864258
1717248840,72587000,0.0012883374574405913,0.004861781354194919,-0.707895207001663,0.7062995675863977,-0.00021830371406394988,4.863973117608111e-06,-0.0007713605300523341,0.17407646775245667,0.10282079130411148,-19.552400588989258
1717248840,108589000,0.0012887947121497936,0.004864609613172322,-0.7078980502116186,0.7062966976335724,-6.669331196462736e-05,0.0001294233661610633,-0.0001649649057071656,0.17089015245437622,0.10114190727472305,-19.558475494384766
1717248840,144589000,0.0012908337362914739,0.0048665964838691305,-0.707898878475472,0.7062958500799063,2.8595623007277027e-05,0.000348750181728974,-0.00013115482579451054,0.17090585827827454,0.10297451168298721,-19.561450958251953
1717248840,180590000,0.0012932449615662036,0.0048644135023653565,-0.7078951888446844,0.7062995586925537,0.00018062183517031372,-1.1602486665651668e-05,0.00020150511409156024,0.17196820676326752,0.10151753574609756,-19.561954498291016
1717248840,216590000,0.0012973136724786427,0.0048669236541374955,-0.7079019072066274,0.7062928003346767,0.00011878470104420558,0.00027383124688640237,-0.0006271884776651859,0.17091144621372223,0.10414168983697891,-19.55864906311035
1717248840,252592000,0.001291257184438942,0.004868993980721995,-0.7079039557991685,0.7062907438982816,-0.00037126539973542094,-0.00021098229626659304,-0.00012673327000811696,0.17197544872760773,0.10125979036092758,-19.558046340942383
1717248840,288592000,0.001291238729137402,0.004876451493255672,-0.70791042950265,0.7062842039326322,-0.00023603974841535091,0.0004695522948168218,-0.0005787044647149742,0.16984282433986664,0.10225359350442886,-19.560997009277344
1717248840,324593000,0.0012827539808665577,0.004872494894779981,-0.707906794398107,0.7062878901557927,-0.00024870355264283717,-0.000511691439896822,0.00020123153808526695,0.17091479897499084,0.10328125953674316,-19.556726455688477
1717248840,360593000,0.0012740209415608062,0.004874846691447463,-0.7079107354267297,0.7062839396503097,-0.0004347266221884638,-0.0001279736025026068,-0.00040192529559135437,0.17197060585021973,0.10156864672899246,-19.560678482055664
1717248840,396593000,0.0012706884752583057,0.00487392372569109,-0.7079075003264551,0.7062871945603043,-0.00013856180885341018,-0.0002466104051563889,0.00019564159447327256,0.16983096301555634,0.10059277713298798,-19.55376625061035
1717248840,432592000,0.001262757096896401,0.004867090309515043,-0.7079109573772078,0.7062837909096585,-1.785071253834758e-05,-0.0004981467500329018,-0.00021897724946029484,0.1719338744878769,0.09837218374013901,-19.55984115600586
1717248840,468594000,0.0012574421241128726,0.004862181424154317,-0.7079098545853257,0.7062849395336743,-2.5791921871132217e-05,-0.0003037288843188435,-6.449200736824423e-05,0.16555269062519073,0.10458102822303772,-19.560258865356445
1717248840,504593000,0.001263935933734627,0.004863574584831703,-0.7079093818651073,0.706285392157855,0.00022194720804691315,0.00036306935362517834,-3.5466349800117314e-05,0.16874143481254578,0.10312958806753159,-19.561281204223633
1717248840,540596000,0.001260550237124026,0.004859136191657332,-0.7079105490510975,0.7062842588864233,8.653730765217915e-05,-0.00029606453608721495,-6.41432125121355e-05,0.163430318236351,0.10153619199991226,-19.557117462158203
1717248840,576596000,0.0012655178848272823,0.004868066517428519,-0.707905772643058,0.7062889758813317,-0.0002029995812335983,0.0006764567806385458,0.0003469108196441084,0.1719573438167572,0.09835223853588104,-19.56062126159668
1717248840,612596000,0.0012650758571834913,0.004860188281010166,-0.7079052374921468,0.7062895673051782,0.00022142330999486148,-0.00038362445775419474,-7.645355071872473e-05,0.17516861855983734,0.1030910462141037,-19.557209014892578
1717248840,648597000,0.0012575730713974915,0.004860089599740886,-0.7079061643926872,0.7062886523609777,-0.00013170766760595143,-0.0001574830967001617,-0.00013948198466096073,0.1719786822795868,0.09823106974363327,-19.55586814880371
1717248840,684598000,0.0012462255348460803,0.00485395467765044,-0.7079049858283974,0.7062898959246127,-0.000333037314703688,-0.0007234819931909442,7.504509267164394e-05,0.1730107069015503,0.10100454092025757,-19.555444717407227
1717248840,720598000,0.0012428179045767588,0.004858397716072728,-0.7079023452800008,0.7062925179572294,-0.00020575524831656367,0.00017081254918593913,0.00015245437680277973,0.17301219701766968,0.1020846739411354,-19.552595138549805
1717248840,756599000,0.0012467802215776905,0.004855700242434118,-0.7079009745462809,0.7062939033792239,0.0002494555665180087,8.164404425770044e-05,3.254932016716339e-05,0.16981665790081024,0.1014857143163681,-19.55488395690918
1717248840,792599000,0.001244785264470823,0.004853258455755257,-0.707897581397423,0.706297324533858,2.6233492462779395e-05,-0.00017986375314649194,0.00020380897331051528,0.17299887537956238,0.10065911710262299,-19.55948829650879
1717248840,828599000,0.001245345112109446,0.00485350281334708,-0.7078993478319224,0.7062955514266894,-8.358413469977677e-05,0.00013196047802921385,-0.0002098039403790608,0.17086723446846008,0.0996408462524414,-19.561607360839844
1717248840,864600000,0.0012334031682209297,0.0048535036455292615,-0.7079023789930647,0.7062925343191353,-0.000444389006588608,-0.0004522198287304491,-0.00032998938695527613,0.1687489151954651,0.09974909573793411,-19.556791305541992
1717248840,900601000,0.0012282965148234912,0.00484925673453162,-0.7079027870704617,0.7062921633818875,1.4798239135416225e-05,-0.00028196294442750514,-9.02918600331759e-06,0.16555295884609222,0.0981026366353035,-19.55913543701172
1717248840,936600000,0.0012261164940371944,0.004855190436437528,-0.7078994206281299,0.706295500508482,-0.00034544686786830425,0.0002229632082162425,0.0001321368181379512,0.17192943394184113,0.09749827533960342,-19.562082290649414
1717248840,972601000,0.0012598596386997,0.00487805277238087,-0.707894926791746,0.7062997876095881,-0.00014922489935997874,0.00012843574222642928,0.00032320868922397494,0.16768480837345123,0.10481540113687515,-19.557769775390625
1717248841,8601000,0.0012645675916649528,0.004880922664772764,-0.7078955805062045,0.7062991041779186,-1.7832246157922782e-05,0.00033867231104522943,-8.225915371440351e-05,0.16980451345443726,0.10096820443868637,-19.561288833618164
1717248841,44601000,0.0012605414119498596,0.004885728826792555,-0.7078899482622283,0.7063047230753022,-0.0002580836589913815,2.3535534637630917e-05,0.00042091537034139037,0.17193084955215454,0.09769248217344284,-19.561365127563477
1717248841,80601000,0.0012598199241480874,0.004888203271729598,-0.7078887103042385,0.7063059479760418,-0.00020336188026703894,0.00015256207552738488,-2.0402620066306554e-05,0.16981616616249084,0.10030508786439896,-19.55497169494629
1717248841,116603000,0.0012608634349635358,0.004890260385063787,-0.7078890328544958,0.7063056086009025,4.7018544137245044e-05,6.455289985751733e-05,-4.748633364215493e-05,0.16875015199184418,0.1070314422249794,-19.55943489074707
1717248841,152602000,0.001263837249966094,0.00488601410050967,-0.7078861152819509,0.7063085567743347,0.00033953285310417414,0.00014257578004617244,8.822699601296335e-05,0.1687820553779602,0.10078193247318268,-19.55921745300293
1717248841,188604000,0.0012671861622733128,0.004884105838593344,-0.7078869704110702,0.7063077069320596,9.094831330003217e-05,-3.554596332833171e-06,-2.81053453363711e-05,0.17516420781612396,0.10099618136882782,-19.55924415588379
1717248841,224605000,0.0012612452978980543,0.004871716099048935,-0.7078900870658051,0.7063046794949864,0.00027201237389817834,-0.0006227446137927473,-0.0003307286824565381,0.17090235650539398,0.1004779040813446,-19.556291580200195
1717248841,260605000,0.0012614374758812006,0.004867442488383999,-0.7078931896895341,0.7063015990143969,0.0001973857288248837,-0.00016794372641015798,-0.0002405456471024081,0.17087019979953766,0.10159540176391602,-19.560317993164062
1717248841,296605000,0.0012611464646818135,0.004868258497473019,-0.7078932261714106,0.706301557346031,-4.69863043690566e-05,0.0001254414237337187,-6.982035120017827e-05,0.17405639588832855,0.1021525040268898,-19.563007354736328
1717248841,332605000,0.0012600694681605897,0.0048653942167436555,-0.7078900464212525,0.7063047659061689,-4.658160378312459e-06,-0.00016258277173619717,0.00020178152772132307,0.1708734780550003,0.09887412935495377,-19.558162689208984
1717248841,368607000,0.0012607285130271978,0.004855004331794302,-0.7078900336536403,0.706304849020876,0.0005271652480587363,-0.00028476439183577895,-2.2524394807987846e-05,0.16980457305908203,0.10363057255744934,-19.561655044555664
1717248841,404607000,0.0012630152643807078,0.0048564493758324855,-0.7078830774124524,0.7063118067857693,0.00012373187928460538,0.00019516413158271462,0.0004458680923562497,0.1719384640455246,0.10057541728019714,-19.55773162841797
1717248841,440609000,0.001261596427707136,0.004849063255312446,-0.7078835912201206,0.7063113451172257,0.00014486952568404377,-0.0003053537802770734,-7.380071474472061e-05,0.1687518209218979,0.09951897710561752,-19.555194854736328
1717248841,476609000,0.0012589490992028043,0.004856721758325493,-0.7078805917379783,0.7063143033675713,-0.0003997327294200659,0.0002462590637151152,0.00015143328346312046,0.1676778495311737,0.09915132820606232,-19.560626983642578
1717248841,512610000,0.0012664763472754802,0.004860597612788354,-0.7078845644279026,0.7063102817269666,0.00011167627235408872,0.0004066609835717827,-0.00039799310616217554,0.17300623655319214,0.10359541326761246,-19.55600929260254
1717248841,548611000,0.001267560943514829,0.004857247351017141,-0.7078879553466049,0.706306904335947,0.0002639058802742511,-5.2069644880248234e-05,-0.0003210566355846822,0.16768878698349,0.1015474945306778,-19.55515480041504
1717248841,584610000,0.001270888889905483,0.004851732807285416,-0.7078882036782308,0.7063066873698732,0.00026706710923463106,4.043324224767275e-06,-9.522496111458167e-05,0.17193616926670074,0.09829844534397125,-19.55860710144043
1717248841,620610000,0.0012674374946853187,0.004843776869463207,-0.7078910367782927,0.7063039087225765,0.00027049003983847797,-0.00042474898509681225,-0.0002253916609333828,0.1698109358549118,0.10244878381490707,-19.558088302612305
1717248841,656612000,0.0012678196169831155,0.00483704783230883,-0.7078930614777434,0.7063019248971043,0.00020420446526259184,-0.0001607730082469061,-0.00013997939822729677,0.16662319004535675,0.10182175785303116,-19.556209564208984
1717248841,692613000,0.0012625067469532122,0.004835693620035863,-0.7078908816767663,0.7063041283914582,-0.00020876254711765796,-0.00020338520698715,5.6630840845173225e-05,0.1751086711883545,0.10357295721769333,-19.558231353759766
1717248841,728613000,0.0012625762674722907,0.00483067837981241,-0.7078887689403867,0.7063062800624268,0.00023657349811401218,-0.00015902533777989447,7.916262256912887e-05,0.17402766644954681,0.10384581983089447,-19.558637619018555
1717248841,764613000,0.0012615976579916169,0.00482915033186539,-0.7078922314693089,0.7063028219565767,5.908631283091381e-05,2.762684744084254e-05,-0.0002974557282868773,0.17085035145282745,0.10244165360927582,-19.557741165161133
1717248841,800614000,0.0012664997265787433,0.00482680957692723,-0.7078905213715393,0.7063045431257546,0.00020634237444028258,6.222167576197535e-05,8.313543366966769e-05,0.16874082386493683,0.10000497102737427,-19.561138153076172
1717248841,836614000,0.001260028257942321,0.0048213100662793515,-0.7078870647794974,0.7063080565984658,-1.3203993148636073e-05,-0.0004037366306874901,0.00016221977421082556,0.16874301433563232,0.09729370474815369,-19.5595645904541
1717248841,872614000,0.0012539628236910914,0.0048085565707769755,-0.7078866886222508,0.7063085313320002,0.0002286140079377219,-0.0006621131324209273,1.2893286111648194e-05,0.17087090015411377,0.1001267358660698,-19.55972671508789
1717248841,908616000,0.0012541175370220003,0.004809860966049351,-0.7078889951746231,0.7063062104621147,4.147752042626962e-05,0.00013737748668063432,-0.0002362197556067258,0.1666286736726761,0.10247788578271866,-19.55338478088379
1717248841,944617000,0.0012589811762978402,0.004807979246874426,-0.7078845033618095,0.7063107164712736,0.00019029511895496398,4.9301623221253976e-05,0.0003013650421053171,0.17194011807441711,0.10307618230581284,-19.563871383666992
1717248841,980618000,0.0012578187887494854,0.004807665061209911,-0.7078819374728073,0.7063132922777954,4.712036115961382e-06,5.7207904319511726e-05,0.00011596637341426685,0.171969473361969,0.09820611774921417,-19.560779571533203
1717248842,16617000,0.001259307081199918,0.004805176535779814,-0.7078837646357218,0.7063114753345675,0.00010825559729710221,1.5158859241637401e-05,-8.006044663488865e-05,0.1730353683233261,0.10234326124191284,-19.560226440429688
1717248842,52617000,0.0012636587286409923,0.0048026432369349115,-0.7078810032746925,0.7063142522895676,0.0003894803812727332,0.00011804194218711928,2.7871612473973073e-05,0.17301775515079498,0.10287370532751083,-19.558618545532227
1717248842,88618000,0.0013012363678850207,0.0048331960083660055,-0.7078815945545878,0.7063133830610274,-0.00018046791956294328,-9.635944297770038e-05,-1.9509941921569407e-05,0.17193703353405,0.09890258312225342,-19.558242797851562
